Time [s],ACC X [m/s^2],ACC Y [m/s^2],ACC Z [m/s^2],GYRO X [rad/s],GYRO Y [rad/s],GYRO Z [rad/s]
05:46:00.006,-0.040820885,-0.27734861,-9.7580252,1.4048706,-0.85317022,2.5979643
05:46:00.016,-0.065552905,-0.27634513,-9.7873878,1.8927215,-0.92407179,2.6581488
05:46:00.026,-0.066230275,-0.31387934,-9.7346392,2.8545735,-0.97960877,2.6885142
05:46:00.036,-0.086874709,-0.3289189,-9.7598448,3.5570323,-0.96695024,2.7061172
05:46:00.046,-0.083303876,-0.23720083,-9.7014351,4.1180253,-1.0220855,2.7311862
05:46:00.056,-0.082663089,-0.35948876,-9.7836733,4.1836772,-0.97820044,2.7313128
05:46:00.066,-0.071141668,-0.30454352,-9.7349024,4.13447,-1.0047143,2.7399559
05:46:00.076,-0.077224642,-0.32912776,-9.7643557,4.217401,-1.0258054,2.7158115
05:46:00.086,-0.081840798,-0.34937671,-9.8063812,3.8218172,-1.0431937,2.7342293
05:46:00.096,-0.11009495,-0.34237951,-9.7011957,3.6776342,-1.0471867,2.701683
05:46:00.106,-0.096788079,-0.36577854,-9.7613592,4.0599656,-0.97972822,2.7267456
05:46:00.116,-0.11501391,-0.35315633,-9.75595,3.4682353,-0.97134537,2.7367358
05:46:00.126,-0.097079672,-0.35763127,-9.8006134,2.691612,-0.96965021,2.7617447
05:46:00.136,-0.095829375,-0.45413879,-9.7266283,1.8913146,-0.97744924,2.8089173
05:46:00.146,-0.10953438,-0.4001503,-9.8131752,1.4802067,-1.0020853,2.8439605
05:46:00.156,-0.12843266,-0.34719551,-9.7141924,2.1261148,-1.0694129,2.8377404
05:46:00.166,-0.10939729,-0.42521417,-9.794591,2.3560808,-1.0503951,2.9081678
05:46:00.176,-0.10288846,-0.36658558,-9.723587,2.1178811,-1.0476151,2.9191434
05:46:00.186,-0.12320009,-0.37114373,-9.7383299,2.4412756,-1.0590197,2.9362888
05:46:00.196,-0.11178011,-0.3377848,-9.710331,2.7818654,-1.0303175,2.9596167
05:46:00.206,-0.12445945,-0.37142509,-9.6825838,3.3989615,-0.9124406,2.9496851
05:46:00.216,-0.093002118,-0.37884387,-9.7254753,3.9914534,-0.87699193,2.9591284
05:46:00.226,-0.10082667,-0.43714634,-9.7425299,3.9408133,-0.86605811,3.0079725
05:46:00.236,-0.10868524,-0.39745009,-9.7839794,3.1843712,-0.85005718,3.0735984
05:46:00.246,-0.11282773,-0.45815042,-9.7616196,2.3389387,-0.81521034,3.0383763
05:46:00.256,-0.1310095,-0.46351427,-9.7581987,1.8430752,-0.8893553,3.0660396
05:46:00.266,-0.11326645,-0.44042686,-9.721981,1.7427766,-0.81313193,3.0111723
05:46:00.276,-0.10632196,-0.42503408,-9.7814837,1.5914093,-0.82265091,3.0316925
05:46:00.286,-0.13289391,-0.50673711,-9.727829,0.93970776,-0.9008621,2.9123499
05:46:00.296,-0.11538254,-0.45927209,-9.7780151,0.12048438,-0.83464694,2.8866186
05:46:00.306,-0.12278402,-0.45277095,-9.7387505,-0.1940854,-0.95110506,2.8258646
05:46:00.316,-0.15670051,-0.38481468,-9.7520695,0.24470918,-0.95765126,2.7688808
05:46:00.326,-0.1210638,-0.4375073,-9.6869259,0.71751636,-1.0115362,2.7200458
05:46:00.336,-0.13970411,-0.47670108,-9.8022022,0.68712348,-0.97775388,2.8305564
05:46:00.346,-0.15158817,-0.44196522,-9.7037544,0.54175836,-1.0123173,2.8005452
05:46:00.356,-0.1278844,-0.38700828,-9.738574,0.59138918,-1.0474001,2.7927046
05:46:00.366,-0.12972337,-0.42945993,-9.7231274,0.96917504,-1.0320624,2.7922895
05:46:00.376,-0.12884806,-0.42660716,-9.7861443,0.85309696,-0.99373311,2.7806692
05:46:00.386,-0.13985205,-0.37705407,-9.7349377,-0.026748013,-1.022498,2.7667184
05:46:00.396,-0.13852768,-0.44689342,-9.7776089,-0.24306701,-1.0529983,2.7966621
05:46:00.406,-0.17486683,-0.48674989,-9.8028278,-0.3145127,-1.0872697,2.7710249
05:46:00.416,-0.18857497,-0.43349844,-9.7531252,-0.65810728,-1.1997917,2.8335767
05:46:00.426,-0.16165921,-0.44473922,-9.7742987,-0.83291787,-1.1815615,2.9053514
05:46:00.436,-0.1541052,-0.48256391,-9.7057724,-1.5130645,-1.227278,2.9649739
05:46:00.446,-0.15512519,-0.41287234,-9.7697802,-2.3614554,-1.2258304,2.8585105
05:46:00.456,-0.14338765,-0.43709305,-9.7125158,-2.1998494,-1.1836293,2.8500605
05:46:00.466,-0.13383545,-0.4708873,-9.733942,-2.7561953,-1.1525629,2.8076637
05:46:00.476,-0.14569813,-0.36052975,-9.6837435,-3.3091049,-1.1651274,2.7760067
05:46:00.486,-0.16249311,-0.49435329,-9.7874794,-4.00069,-1.1046741,2.7193906
05:46:00.496,-0.17462723,-0.44389969,-9.7402964,-4.9167848,-1.1592662,2.759352
05:46:00.506,-0.17975017,-0.3513476,-9.755147,-5.1827621,-1.1321352,2.6798866
05:46:00.516,-0.15059969,-0.42120376,-9.7130785,-5.3767486,-1.1403776,2.6371939
05:46:00.526,-0.18078969,-0.4520793,-9.7500286,-5.8501811,-1.1437049,2.5477164
05:46:00.536,-0.18401769,-0.32068646,-9.676445,-5.3093009,-1.0493939,2.4747987
05:46:00.546,-0.18497963,-0.33082649,-9.6968317,-4.9311285,-1.0635712,2.3241398
05:46:00.556,-0.17862655,-0.35581285,-9.7173805,-4.3057132,-1.0748721,2.2662382
05:46:00.566,-0.17511159,-0.29445222,-9.6915274,-3.016695,-1.0478246,2.2358856
05:46:00.576,-0.1486779,-0.31981012,-9.7397308,-2.3915939,-1.0381501,2.1906035
05:46:00.586,-0.19159356,-0.32709101,-9.6774979,-2.0429535,-1.0185872,2.2023225
05:46:00.596,-0.19186631,-0.34887093,-9.760725,-1.9475685,-1.0492865,2.2069087
05:46:00.606,-0.19163401,-0.37675163,-9.7116833,-2.1724629,-1.1267064,2.2652531
05:46:00.616,-0.19765335,-0.28916612,-9.7319517,-2.0666237,-1.2073958,2.2490189
05:46:00.626,-0.18593171,-0.39135244,-9.7198286,-1.9290061,-1.2719862,2.3420548
05:46:00.636,-0.21218248,-0.38761204,-9.7914972,-2.1618099,-1.2411052,2.2798393
05:46:00.646,-0.21201152,-0.32860374,-9.683383,-2.9796305,-1.2778122,2.2479191
05:46:00.656,-0.19412728,-0.38240391,-9.7193909,-3.7849422,-1.2762259,2.2277763
05:46:00.666,-0.20435299,-0.37760887,-9.6929493,-4.8480048,-1.2525355,2.2283232
05:46:00.676,-0.20537153,-0.3388299,-9.7417727,-5.8469291,-1.2311345,2.1681833
05:46:00.686,-0.1981861,-0.28258309,-9.6998014,-6.0414014,-1.2368543,2.1918075
05:46:00.696,-0.20790172,-0.28753874,-9.7212954,-6.2646565,-1.1685268,2.1797657
05:46:00.706,-0.21263498,-0.29221001,-9.6992817,-6.6420908,-1.1599262,2.0305824
05:46:00.716,-0.20531963,-0.22855169,-9.7135677,-6.1321931,-1.0861435,1.9185582
05:46:00.726,-0.19869046,-0.17572214,-9.7131338,-5.6225042,-1.1122748,1.8546301
05:46:00.736,-0.18226185,-0.23283854,-9.7226982,-5.8393025,-1.0761634,1.7989998
05:46:00.746,-0.22490862,-0.22822793,-9.7583656,-5.7249651,-1.0990641,1.6734726
05:46:00.756,-0.21182199,-0.19235235,-9.6763515,-5.523735,-1.1313481,1.6041199
05:46:00.766,-0.20258936,-0.24221577,-9.7349186,-5.43398,-1.103531,1.5838269
05:46:00.776,-0.22244918,-0.24678335,-9.7074518,-5.0220852,-1.1075989,1.6028103
05:46:00.786,-0.22202259,-0.22431719,-9.7241211,-4.5524507,-1.1271909,1.5998546
05:46:00.796,-0.21574239,-0.20668213,-9.7144423,-4.0657749,-1.150815,1.6488653
05:46:00.806,-0.23180825,-0.18127,-9.7384367,-3.6903832,-1.16216,1.7170341
05:46:00.816,-0.24319975,-0.20183809,-9.6851721,-3.7132533,-1.2136087,1.6117316
05:46:00.826,-0.24170589,-0.23239511,-9.7810383,-3.6524756,-1.1172302,1.6060565
05:46:00.836,-0.24841928,-0.21520697,-9.6969814,-4.0501852,-1.1475234,1.5188493
05:46:00.846,-0.22950803,-0.19093511,-9.7347088,-5.0232468,-1.1809223,1.4189827
05:46:00.856,-0.23937817,-0.21477984,-9.7082481,-5.3808322,-1.1117438,1.3929545
05:46:00.866,-0.22919591,-0.19204003,-9.6573334,-5.5299859,-1.0986581,1.2640694
05:46:00.876,-0.2478186,-0.14014518,-9.7205095,-6.2443314,-1.0926082,1.2428157
05:46:00.886,-0.24078828,-0.14054571,-9.7199488,-6.639679,-0.98938245,1.3102094
05:46:00.896,-0.23845083,-0.15585048,-9.7082129,-6.9497371,-0.97038001,1.2060035
05:46:00.906,-0.25476605,-0.11664736,-9.7022724,-6.7161174,-0.96017897,1.2108368
05:46:00.916,-0.26345828,-0.08134041,-9.7560472,-6.035161,-0.97871512,1.1899518
05:46:00.926,-0.22986908,-0.14157943,-9.6788626,-5.9795628,-0.92897141,1.1569163
05:46:00.936,-0.25845376,-0.13285363,-9.7499495,-6.3328791,-0.9324066,1.1449841
05:46:00.946,-0.25659195,-0.006452207,-9.7235556,-6.6037531,-0.92705399,1.0737883
05:46:00.956,-0.27276012,-0.050776526,-9.7555313,-6.6552873,-0.86239016,1.0781165
05:46:00.966,-0.26704547,-0.10483462,-9.7214108,-6.3867216,-0.91677636,1.0907605
05:46:00.976,-0.26002237,-0.032751665,-9.7220812,-6.4229765,-0.95247787,1.0983614
05:46:00.986,-0.27792874,-0.034594614,-9.7453098,-6.406714,-0.90253401,1.2119844
05:46:00.996,-0.27362758,-0.020326693,-9.7441387,-6.7399511,-0.91390765,1.2831516
05:46:01.006,-0.26577109,0.0027924015,-9.7217531,-7.0794773,-0.87517941,1.3035463
05:46:01.016,-0.27652651,0.033724867,-9.7281647,-6.2982507,-0.82853895,1.3189117
05:46:01.026,-0.27840745,0.063917287,-9.7629852,-6.1379914,-0.78972125,1.2988288
05:46:01.036,-0.28015131,0.062679052,-9.7152729,-6.2818646,-0.78075981,1.2333678
05:46:01.046,-0.28893286,0.03248528,-9.7854614,-5.743732,-0.77987969,1.2235329
05:46:01.056,-0.27917871,0.060348749,-9.7394619,-5.7959151,-0.78123236,1.1645749
05:46:01.066,-0.27225661,0.050098803,-9.792592,-5.7104673,-0.81025577,1.13859
05:46:01.076,-0.29947346,0.028653082,-9.7081404,-5.1375942,-0.82329106,1.1649252
05:46:01.086,-0.31253099,0.015725777,-9.7769079,-4.8298383,-0.85528243,1.16873
05:46:01.096,-0.29910713,0.1015492,-9.7092009,-4.7672153,-0.83469111,1.1902403
05:46:01.106,-0.29095319,0.11115538,-9.7356567,-4.0313258,-0.90939057,1.2578095
05:46:01.116,-0.29496324,0.10723353,-9.6925783,-3.2115269,-0.87009031,1.3649085
05:46:01.126,-0.31099337,0.13574503,-9.7467117,-2.5786767,-0.79151559,1.44636
05:46:01.136,-0.32408002,0.20973323,-9.6807098,-1.6249675,-0.84491122,1.3555471
05:46:01.146,-0.3152132,0.16813576,-9.7776842,-1.019392,-0.75710416,1.4085575
05:46:01.156,-0.28659055,0.1248983,-9.7647057,-0.5250715,-0.72467631,1.425617
05:46:01.166,-0.28595147,0.13468812,-9.7351198,-0.032961734,-0.80647272,1.4799263
05:46:01.176,-0.27935892,0.12720424,-9.8322201,-0.21260954,-0.81644064,1.5076778
05:46:01.186,-0.32121679,0.11192496,-9.7063189,0.10023713,-0.7759003,1.6294451
05:46:01.196,-0.31472978,0.10541084,-9.7787104,0.64763522,-0.79992044,1.643545
05:46:01.206,-0.3007918,0.14913718,-9.7575169,0.86549515,-0.8743118,1.6490142
05:46:01.216,-0.31353939,0.10922258,-9.7823668,0.55685437,-0.876279,1.7280834
05:46:01.226,-0.31130132,0.075927138,-9.7041111,-0.062546708,-0.84674519,1.7020779
05:46:01.236,-0.33951658,0.065772124,-9.7896547,-0.22235931,-0.85033077,1.6306771
05:46:01.246,-0.30342159,0.17376792,-9.7132359,-0.21080659,-0.87198991,1.5604277
05:46:01.256,-0.30869186,0.064187244,-9.7489929,-0.28452072,-0.76380849,1.4063573
05:46:01.266,-0.30050242,0.052198507,-9.7813225,-0.48362157,-0.87112159,1.3062841
05:46:01.276,-0.30848226,0.022090593,-9.7875109,-1.4253212,-0.82027018,1.2917403
05:46:01.286,-0.26790729,0.11678445,-9.7760639,-2.6932168,-0.8494609,1.3375723
05:46:01.296,-0.32644388,0.081096292,-9.7326088,-3.5703197,-0.84588522,1.3714685
05:46:01.306,-0.31160516,0.15112542,-9.7485085,-3.8462405,-0.9104858,1.2755327
05:46:01.316,-0.31027779,0.16755748,-9.7555208,-3.8623087,-0.92105943,1.2790213
05:46:01.326,-0.30687892,0.22846097,-9.771637,-3.8171008,-0.91373628,1.3006009
05:46:01.336,-0.29535946,0.1278283,-9.699667,-3.1974199,-0.84398258,1.3458755
05:46:01.346,-0.32528377,0.15677536,-9.7688665,-2.6005979,-0.85240775,1.416213
05:46:01.356,-0.33753449,0.24427721,-9.7423744,-2.273174,-0.8524245,1.534466
05:46:01.366,-0.32843277,0.19806004,-9.7739305,-2.0517373,-0.77990127,1.5335969
05:46:01.376,-0.31753993,0.16382092,-9.7138567,-1.8583694,-0.88128036,1.5838662
05:46:01.386,-0.31856993,0.19365546,-9.7546892,-2.3883882,-0.88059354,1.6032716
05:46:01.396,-0.31364778,0.2163094,-9.7534943,-2.673316,-0.88197899,1.5959275
05:46:01.406,-0.33725196,0.22377186,-9.7503557,-2.3377919,-0.80431503,1.5709083
05:46:01.416,-0.35349625,0.15015066,-9.7105484,-2.4655273,-0.8058064,1.5588067
05:46:01.426,-0.31947115,0.15649004,-9.7796955,-2.679718,-0.78088439,1.5403682
05:46:01.436,-0.30881432,0.16766682,-9.8027506,-3.2626269,-0.76950568,1.5025375
05:46:01.446,-0.33002639,0.1656467,-9.7336712,-3.7415371,-0.67655629,1.5777152
05:46:01.456,-0.35858852,0.14185646,-9.7705259,-3.459373,-0.7856971,1.5445576
05:46:01.466,-0.35574332,0.20198548,-9.7380886,-3.7409923,-0.70158279,1.4494816
05:46:01.476,-0.34306392,0.205727,-9.7992201,-3.9656005,-0.69047964,1.4165692
05:46:01.486,-0.32941523,0.19538854,-9.7328033,-3.751956,-0.65333629,1.4941388
05:46:01.497,-0.34850127,0.18675208,-9.7776852,-4.0057182,-0.635014,1.4316841
05:46:01.506,-0.34036523,0.23451982,-9.7039862,-3.2645476,-0.67753088,1.4843984
05:46:01.516,-0.37335843,0.26863289,-9.8118095,-2.4864869,-0.68169463,1.4484415
05:46:01.526,-0.35046226,0.26231232,-9.7264223,-2.1443636,-0.71877825,1.4624324
05:46:01.536,-0.33356366,0.23467276,-9.7813511,-1.3325546,-0.80376703,1.4501592
05:46:01.546,-0.34183553,0.25800198,-9.7507858,-0.86861783,-0.79291284,1.5641303
05:46:01.556,-0.34033439,0.28250715,-9.7558088,-0.5048002,-0.78686255,1.5698053
05:46:01.566,-0.34161258,0.25887421,-9.6447458,0.027719242,-0.78653264,1.5327079
05:46:01.576,-0.37149847,0.21476653,-9.8030024,-0.52469712,-0.69432867,1.4722959
05:46:01.586,-0.3359372,0.25235635,-9.7607527,-1.6072004,-0.64251548,1.5000083
05:46:01.596,-0.34155273,0.26907748,-9.7380915,-2.2980406,-0.71509111,1.3977309
05:46:01.606,-0.3514511,0.19994241,-9.7782888,-2.5136194,-0.66119713,1.3375422
05:46:01.616,-0.35070741,0.24951366,-9.7358208,-2.2563422,-0.62724882,1.3526772
05:46:01.626,-0.37897483,0.24069464,-9.7924232,-2.1794639,-0.59326285,1.3407847
05:46:01.636,-0.33444744,0.2214904,-9.7232962,-2.6608887,-0.60901254,1.3824872
05:46:01.646,-0.33979952,0.23703927,-9.7924767,-2.6651597,-0.57099587,1.3912724
05:46:01.656,-0.35242447,0.2731809,-9.7159901,-2.5203195,-0.52448696,1.339035
05:46:01.666,-0.3481169,0.25405324,-9.8268566,-2.8876524,-0.50430191,1.3146082
05:46:01.676,-0.34101659,0.30585676,-9.6825323,-3.0113571,-0.47689363,1.3513848
05:46:01.686,-0.33433649,0.24620523,-9.7943535,-2.4508932,-0.54233295,1.3141986
05:46:01.696,-0.36044356,0.316488,-9.7451963,-1.9296829,-0.53283817,1.376423
05:46:01.706,-0.35743049,0.33261916,-9.7479258,-1.1983103,-0.5060702,1.48351
05:46:01.716,-0.35417554,0.29738799,-9.7110538,-0.14767081,-0.58208722,1.550254
05:46:01.726,-0.38226196,0.29020682,-9.7721748,0.54180348,-0.54001087,1.5103692
05:46:01.736,-0.35415605,0.38055396,-9.6978636,1.2293526,-0.51914316,1.6013991
05:46:01.746,-0.36205441,0.30490205,-9.7974987,2.2732968,-0.53299385,1.567742
05:46:01.756,-0.35151193,0.33679911,-9.7683964,2.9244111,-0.54573846,1.5595361
05:46:01.766,-0.36692315,0.23903641,-9.7750816,2.9878552,-0.57743359,1.4423378
05:46:01.776,-0.38840342,0.25330722,-9.8006401,2.6967912,-0.55707085,1.4985352
05:46:01.786,-0.39295474,0.20513493,-9.7267408,2.4313903,-0.5380432,1.4914186
05:46:01.796,-0.35867199,0.19808689,-9.7520638,1.9015448,-0.48569852,1.5045177
05:46:01.806,-0.36718702,0.2060218,-9.766325,0.98819864,-0.43287069,1.5444746
05:46:01.816,-0.35206506,0.28143501,-9.7822504,0.48045364,-0.36630252,1.5492216
05:46:01.826,-0.33611444,0.25615719,-9.6784143,0.081036218,-0.30473462,1.4658906
05:46:01.836,-0.37855595,0.28120521,-9.7546864,0.76916158,-0.27554584,1.4358233
05:46:01.846,-0.37583554,0.32212073,-9.7136812,2.0122287,-0.24649365,1.3360829
05:46:01.856,-0.36576268,0.29233125,-9.778079,2.4338036,-0.24841121,1.305611
05:46:01.866,-0.36920166,0.22987872,-9.7444458,2.5130489,-0.26154578,1.3824912
05:46:01.876,-0.38858566,0.29685068,-9.7438049,3.1985681,-0.28317121,1.5047867
05:46:01.886,-0.36896822,0.30644172,-9.7232256,4.1199093,-0.27933198,1.6034672
05:46:01.896,-0.35910994,0.23182507,-9.7337666,5.1796598,-0.28034982,1.6725101
05:46:01.906,-0.34068957,0.19697258,-9.7431135,5.7313175,-0.32315776,1.8140612
05:46:01.916,-0.39612976,0.21699117,-9.783185,5.4894075,-0.27864432,1.8867435
05:46:01.926,-0.38282627,0.26073864,-9.7839899,5.2562175,-0.39991719,1.8580669
05:46:01.936,-0.370294,0.17094837,-9.7047081,5.1868548,-0.37932554,1.8765458
05:46:01.946,-0.38125488,0.16630407,-9.7587433,5.0918641,-0.38383147,1.851961
05:46:01.956,-0.37459624,0.1886306,-9.7435999,5.0736046,-0.37750182,1.8079319
05:46:01.966,-0.36563146,0.19815151,-9.7610493,5.2038622,-0.38229468,1.8486239
05:46:01.976,-0.37005773,0.10751862,-9.759305,4.8830686,-0.37977651,1.8641522
05:46:01.986,-0.38316891,0.14371006,-9.7511072,4.0652728,-0.28279978,1.8141055
05:46:01.996,-0.34404159,0.17199615,-9.7237358,3.2877805,-0.25391203,1.8346783
05:46:02.006,-0.37063316,0.15772066,-9.7480564,2.4201617,-0.19012041,1.8077519
05:46:02.016,-0.34507251,0.11964939,-9.7026711,1.8972399,-0.23136336,1.7690209
05:46:02.026,-0.35874924,0.1342701,-9.753541,1.7853917,-0.1437667,1.7422845
05:46:02.036,-0.37617043,0.1698186,-9.7102022,1.6424485,-0.158436,1.7326669
05:46:02.046,-0.37583005,0.1334196,-9.7347107,1.2985501,-0.059590992,1.7913672
05:46:02.056,-0.39479607,0.11766522,-9.7174149,1.2850207,-0.12072675,1.7904992
05:46:02.066,-0.41969922,0.16432922,-9.7319775,1.0250331,-0.043066591,1.8672041
05:46:02.076,-0.37732869,0.16030988,-9.7214565,1.0296482,-0.063515179,1.8486168
05:46:02.086,-0.38368297,0.20463271,-9.7317467,1.074472,0.027009118,1.8592477
05:46:02.096,-0.35584468,0.1182338,-9.73454,0.82192212,0.06002745,1.7864711
05:46:02.106,-0.36314911,0.11620218,-9.7617989,0.15117051,0.074157417,1.8261955
05:46:02.116,-0.39366776,0.11642072,-9.7829971,-0.85846931,0.083709441,1.7981832
05:46:02.126,-0.39253613,0.12114386,-9.7067347,-1.0842392,0.097269587,1.7569534
05:46:02.136,-0.3975327,0.11998928,-9.7824335,-0.89670515,0.11449045,1.7983873
05:46:02.146,-0.38167244,0.17821619,-9.7595739,-0.92611492,0.1017998,1.6815041
05:46:02.156,-0.37502122,0.12794811,-9.7993898,-1.6591021,0.12105142,1.6335342
05:46:02.166,-0.37192339,0.16372767,-9.7081871,-1.8262825,0.085166305,1.5955051
05:46:02.176,-0.38316748,0.12043773,-9.7798271,-1.7813237,0.11911817,1.5300909
05:46:02.186,-0.36359325,0.13780838,-9.7295599,-2.170985,0.12486931,1.4825095
05:46:02.196,-0.3569192,0.1274454,-9.8063107,-2.9335623,0.12189114,1.534281
05:46:02.206,-0.36006099,0.13362853,-9.6997852,-4.3104911,0.14142777,1.61417
05:46:02.216,-0.36114916,0.11892712,-9.7580652,-4.8003144,0.15910684,1.6308824
05:46:02.226,-0.3578108,0.21858422,-9.6983547,-4.2697654,0.19150843,1.7059499
05:46:02.236,-0.36321774,0.18119115,-9.7979069,-4.2762403,0.24336879,1.8721993
05:46:02.246,-0.34154442,0.24322879,-9.7250443,-4.4204926,0.24885008,1.9183342
05:46:02.256,-0.36112568,0.17122042,-9.7456579,-4.5959973,0.27682531,1.9609164
05:46:02.266,-0.34827116,0.27626923,-9.771986,-4.5789509,0.3287797,1.9543482
05:46:02.276,-0.36399522,0.24196774,-9.6957188,-4.2601562,0.31066072,1.936065
05:46:02.286,-0.3314127,0.18221822,-9.7813759,-4.1013069,0.30619973,1.922727
05:46:02.296,-0.35648841,0.17697972,-9.7755547,-4.6406212,0.45066532,1.9333661
05:46:02.306,-0.31899369,0.24116731,-9.7668734,-5.7926354,0.50671417,1.8377243
05:46:02.316,-0.32262063,0.1799805,-9.7710571,-7.0924821,0.49352047,1.7106633
05:46:02.326,-0.36712816,0.16616312,-9.8224659,-8.3674984,0.5530836,1.637821
05:46:02.336,-0.386087,0.2330121,-9.7543964,-9.2984037,0.57263249,1.4953201
05:46:02.346,-0.38232046,0.26671475,-9.8318768,-9.813899,0.5552097,1.3654066
05:46:02.356,-0.36627126,0.27692693,-9.7450714,-9.9843998,0.55186027,1.2940292
05:46:02.366,-0.36119264,0.23856789,-9.7702675,-10.260556,0.60649121,1.2113881
05:46:02.376,-0.37630177,0.31511259,-9.7796459,-10.821774,0.58243513,1.1660125
05:46:02.386,-0.37221295,0.39872161,-9.7528954,-10.092089,0.65688145,1.1638033
05:46:02.396,-0.35263202,0.33706284,-9.7370443,-9.2236691,0.69104362,1.1637158
05:46:02.406,-0.34497288,0.35961232,-9.7609425,-8.5975428,0.78612709,1.1955521
05:46:02.416,-0.33741322,0.42945361,-9.7801533,-7.9082236,0.84171432,1.1695887
05:46:02.426,-0.33272839,0.42820865,-9.7539101,-7.5254984,0.85819501,1.1994708
05:46:02.436,-0.35373095,0.37567174,-9.8100119,-7.1072907,0.85228968,1.2668078
05:46:02.446,-0.37607098,0.44039041,-9.7365112,-6.7698312,0.89136744,1.23327
05:46:02.456,-0.3610236,0.47137466,-9.8195419,-6.1005788,0.84064579,1.2796777
05:46:02.466,-0.3297767,0.45372355,-9.7500525,-5.0990825,0.82859373,1.3870944
05:46:02.476,-0.3173995,0.44999555,-9.7870092,-4.4965658,0.80997211,1.309649
05:46:02.486,-0.32757893,0.47456101,-9.779047,-4.1917138,0.76418233,1.3630097
05:46:02.496,-0.34236351,0.5105617,-9.8003025,-3.7931731,0.83353418,1.3986988
05:46:02.506,-0.30145553,0.46296731,-9.7212362,-3.7354033,0.80323356,1.379244
05:46:02.516,-0.29732794,0.45978469,-9.8067656,-3.8901598,0.81590086,1.4132148
05:46:02.526,-0.35417646,0.51703489,-9.8117514,-4.5135121,0.78989911,1.4722289
05:46:02.536,-0.34898734,0.49800575,-9.7916012,-5.4255939,0.79071796,1.3846959
05:46:02.546,-0.33178306,0.49084443,-9.7717857,-5.6504545,0.75174761,1.3788576
05:46:02.556,-0.32750806,0.53029782,-9.7808571,-5.7642684,0.76817465,1.3931921
05:46:02.566,-0.32126114,0.53094035,-9.8139009,-5.8894787,0.82264698,1.4933031
05:46:02.576,-0.29523015,0.56429267,-9.7532816,-5.422761,0.81999797,1.4390128
05:46:02.586,-0.31319249,0.53295141,-9.8214436,-5.248138,0.7848509,1.4176745
05:46:02.596,-0.30879909,0.51269263,-9.7728834,-5.2087612,0.8395493,1.5224725
05:46:02.606,-0.30358249,0.556831,-9.8343353,-5.1085429,0.8402499,1.62178
05:46:02.616,-0.31199306,0.51803362,-9.7329426,-5.384141,0.81699246,1.6542778
05:46:02.626,-0.31495142,0.53599298,-9.7714682,-5.150558,0.86636329,1.7357601
05:46:02.636,-0.31567371,0.69685549,-9.7392988,-4.7462983,0.86318582,1.7473347
05:46:02.646,-0.31988084,0.7190761,-9.8243532,-4.4069805,0.90517706,1.7642912
05:46:02.656,-0.31234169,0.55080336,-9.7226439,-3.5998187,0.91493702,1.8027962
05:46:02.666,-0.28811601,0.64318484,-9.7800713,-2.8043528,0.90328443,1.8440183
05:46:02.676,-0.31802458,0.65252191,-9.8058605,-2.3612993,0.86239231,1.8569438
05:46:02.686,-0.31820536,0.64059907,-9.8077803,-1.1715728,0.79630071,1.876702
05:46:02.696,-0.30827338,0.60304594,-9.786459,-0.15883644,0.78000492,1.8603442
05:46:02.706,-0.31984842,0.59799707,-9.7922335,-0.0078257388,0.77508599,1.8287121
05:46:02.716,-0.30538818,0.62380493,-9.8003931,0.50727206,0.77865124,1.7965163
05:46:02.726,-0.28124914,0.62658858,-9.7454882,0.52445686,0.8092162,1.7660766
05:46:02.736,-0.28772339,0.55554628,-9.7830181,0.30076015,0.85009795,1.7095172
05:46:02.746,-0.29218578,0.61856329,-9.7376919,0.59474522,0.83811355,1.6225914
05:46:02.756,-0.26061815,0.63030875,-9.8231573,1.1336364,0.87950873,1.6662836
05:46:02.766,-0.28428829,0.66343832,-9.7161922,1.5916117,0.85984725,1.644969
05:46:02.776,-0.2925041,0.57673168,-9.8113317,2.2581179,0.81759214,1.5368232
05:46:02.786,-0.30533475,0.61971956,-9.7895403,2.8773482,0.83402634,1.5967469
05:46:02.796,-0.29242107,0.66655713,-9.8009806,3.2642558,0.76488787,1.7482264
05:46:02.806,-0.25456765,0.59672844,-9.7420311,3.9409671,0.73590684,1.8485446
05:46:02.816,-0.28286988,0.60130382,-9.7573471,4.9039993,0.7455492,1.8963485
05:46:02.826,-0.29687965,0.75380152,-9.7817297,5.6897583,0.77274275,1.9841692
05:46:02.837,-0.29521567,0.5949381,-9.7854795,6.3206115,0.76299173,2.0185847
05:46:02.846,-0.27104318,0.58065516,-9.7697821,6.8571014,0.74608278,2.0678205
05:46:02.857,-0.28708294,0.56650096,-9.7629366,7.2947783,0.71816379,2.1862068
05:46:02.866,-0.2836754,0.59421611,-9.8311501,7.7869644,0.73546571,2.2060792
05:46:02.877,-0.30192146,0.55376053,-9.7526121,8.4324942,0.76653248,2.1750808
05:46:02.887,-0.27327225,0.51033747,-9.7865763,8.7527838,0.72685915,2.2132854
05:46:02.897,-0.2828567,0.47959787,-9.780468,9.2178211,0.76462406,2.1553664
05:46:02.906,-0.24890837,0.49702623,-9.7939425,9.0016613,0.81006151,2.0936062
05:46:02.916,-0.26099479,0.45076376,-9.757844,8.2645226,0.86630303,2.1285181
05:46:02.926,-0.27330357,0.33553195,-9.8265257,7.5678196,0.94396675,2.0451076
05:46:02.936,-0.27785838,0.39659077,-9.7982254,6.2468734,0.96355557,1.9107752
05:46:02.946,-0.2647137,0.38150224,-9.8349466,4.9076562,1.0187697,1.8871479
05:46:02.956,-0.26179984,0.29300237,-9.8098764,3.6120858,0.95785958,1.8419452
05:46:02.966,-0.25296816,0.3114242,-9.7912006,2.7474928,1.0016009,1.7599394
05:46:02.976,-0.25963527,0.37925759,-9.8141966,2.2765005,0.89042854,1.6940466
05:46:02.986,-0.27560657,0.36735401,-9.7811937,1.838303,0.93952066,1.6840925
05:46:02.996,-0.26290411,0.33450797,-9.7461329,1.516058,0.92863899,1.6484234
05:46:03.006,-0.26630476,0.34764192,-9.7646008,1.2285293,0.99409074,1.580322
05:46:03.016,-0.26252455,0.43585566,-9.7901268,0.76630312,1.0099078,1.5284098
05:46:03.026,-0.25825337,0.37338087,-9.7813244,0.46793157,1.0611155,1.5497367
05:46:03.036,-0.25970271,0.38232628,-9.8236418,0.49082437,0.97043878,1.5290989
05:46:03.046,-0.25287405,0.42294738,-9.753355,0.37379685,0.99269319,1.4738312
05:46:03.056,-0.23118427,0.37841484,-9.8384018,0.67656261,0.92001009,1.525417
05:46:03.066,-0.24621387,0.40190029,-9.7704411,0.17793003,0.84232533,1.5416728
05:46:03.076,-0.26104683,0.38555899,-9.7748356,0.36062559,0.86335558,1.5697403
05:46:03.086,-0.23785515,0.41320464,-9.7456732,0.63497454,0.94232523,1.6130605
05:46:03.096,-0.25792143,0.34394085,-9.8027973,1.1561332,0.99453187,1.7499006
05:46:03.106,-0.22046834,0.54214394,-9.7021465,1.7617649,1.0766227,1.7718166
05:46:03.116,-0.20969324,0.34607002,-9.8161583,2.7987747,1.110846,1.9392434
05:46:03.126,-0.20397259,0.39245453,-9.7598104,3.375257,1.1413788,1.9698815
05:46:03.136,-0.18917654,0.47460672,-9.7620468,4.3043213,1.1882404,2.1198039
05:46:03.146,-0.23904736,0.42310017,-9.7770939,5.0116911,1.1941509,2.2932856
05:46:03.156,-0.23337142,0.44098222,-9.8064604,5.7506838,1.1887164,2.3312395
05:46:03.166,-0.23588461,0.39809701,-9.796217,6.1824331,1.142193,2.3783476
05:46:03.176,-0.21378902,0.42860141,-9.8035536,6.2351842,1.152004,2.4670959
05:46:03.186,-0.20673336,0.35884765,-9.8075361,6.3726716,1.1912334,2.4175975
05:46:03.196,-0.20417063,0.39059719,-9.8059187,6.8776207,1.1709867,2.3757186
05:46:03.206,-0.24302597,0.35196537,-9.8039961,7.0707769,1.2102462,2.3388369
05:46:03.216,-0.22506276,0.31614846,-9.768116,6.7217946,1.23896,2.3333619
05:46:03.226,-0.21334836,0.2703847,-9.7998495,6.2744746,1.2838664,2.2933841
05:46:03.236,-0.20602864,0.29722813,-9.8164101,5.7738371,1.2486881,2.3430483
05:46:03.246,-0.21767356,0.31464595,-9.8324928,5.2945242,1.29469,2.4422081
05:46:03.256,-0.20232238,0.32988694,-9.7708254,4.5514317,1.2610446,2.4486234
05:46:03.266,-0.22404301,0.26166528,-9.7924376,4.5482659,1.2482163,2.4015169
05:46:03.276,-0.20777732,0.33296326,-9.8224831,5.2195601,1.2386038,2.4416475
05:46:03.286,-0.2055072,0.31767172,-9.7936392,5.5696125,1.2201337,2.5320489
05:46:03.296,-0.175786,0.23356506,-9.8149443,5.6858797,1.1650761,2.6118314
05:46:03.306,-0.21574707,0.20516182,-9.8280678,5.9867167,1.1773168,2.6607773
05:46:03.316,-0.19225192,0.28764954,-9.8229036,5.86129,1.1627192,2.7308438
05:46:03.326,-0.17001937,0.22875667,-9.7847271,5.333179,1.2127516,2.7478621
05:46:03.336,-0.1484514,0.22408541,-9.8190565,5.0847354,1.1686896,2.7456083
05:46:03.346,-0.16473407,0.22339728,-9.7775822,4.7833252,1.2365466,2.6766624
05:46:03.356,-0.18282731,0.25498137,-9.8388386,4.9933429,1.2501563,2.7032235
05:46:03.366,-0.19003566,0.22739212,-9.7678137,5.1330152,1.2513493,2.6584198
05:46:03.376,-0.17103456,0.14927812,-9.8299341,4.684104,1.2698441,2.6189969
05:46:03.386,-0.15299539,0.19973938,-9.7732849,5.3636947,1.2715938,2.6184981
05:46:03.396,-0.15556739,0.21761349,-9.8685131,5.5214396,1.2508701,2.6671426
05:46:03.406,-0.14752521,0.14176862,-9.7598667,4.8709326,1.2369184,2.6916187
05:46:03.416,-0.16555829,0.12986794,-9.8580103,4.8011417,1.250978,2.7513204
05:46:03.426,-0.17480189,0.23792996,-9.7779303,4.7269411,1.1953647,2.7141414
05:46:03.436,-0.15979774,0.15921897,-9.8696175,4.7189536,1.2176355,2.7035162
05:46:03.446,-0.14741622,0.11699196,-9.8077402,4.4827166,1.2371937,2.7731683
05:46:03.456,-0.16140854,0.11411079,-9.8074627,3.9300168,1.245863,2.7049387
05:46:03.466,-0.1725882,0.13763212,-9.8243904,3.9496624,1.245357,2.7326674
05:46:03.476,-0.16760467,0.14762045,-9.8360567,3.7540195,1.2539861,2.7534361
05:46:03.486,-0.14257839,0.08686053,-9.8077288,3.6739216,1.2546245,2.7351916
05:46:03.496,-0.14354083,0.13691747,-9.8067951,3.7143013,1.2134881,2.7052271
05:46:03.506,-0.13938119,0.12048446,-9.8745337,3.4088886,1.2527008,2.7090082
05:46:03.516,-0.10648931,0.043285344,-9.7999678,3.2037745,1.2268029,2.7449329
05:46:03.526,-0.12136541,0.059515733,-9.8212337,2.7710128,1.2659225,2.7552893
05:46:03.536,-0.14103319,0.089875087,-9.7767029,2.471873,1.3066026,2.7457075
05:46:03.546,-0.14523375,0.058892947,-9.8790236,2.8468671,1.3449241,2.7708099
05:46:03.556,-0.14561486,0.045923952,-9.8021154,2.8632426,1.3166807,2.8378332
05:46:03.566,-0.13463344,0.067426108,-9.8557024,3.4615929,1.2746108,2.905019
05:46:03.577,-0.14221694,0.073417895,-9.82687,4.9044313,1.2859085,2.8868935
05:46:03.586,-0.13685773,0.092889421,-9.8464298,5.0424809,1.2160087,2.8939774
05:46:03.596,-0.1086323,0.059021883,-9.8267126,5.0932302,1.174787,2.8404019
05:46:03.606,-0.12498651,0.026689801,-9.8198891,5.53021,1.1002545,2.8598485
05:46:03.616,-0.15898147,0.078372657,-9.8296595,5.5664649,1.0687187,2.8079474
05:46:03.626,-0.13251744,0.043259773,-9.8253489,5.3598413,1.0898783,2.7371311
05:46:03.636,-0.13554674,-0.034590963,-9.8152313,5.2058501,1.0596437,2.7044277
05:46:03.646,-0.13519837,0.040700234,-9.8181219,5.2883048,1.0257226,2.6288798
05:46:03.656,-0.1044457,-0.0046713706,-9.8395061,5.5062914,1.0176705,2.5248916
05:46:03.666,-0.10089694,-0.024827208,-9.8026247,5.411397,0.93960053,2.4455621
05:46:03.676,-0.09544149,-0.065065004,-9.8385239,4.8605881,0.95809042,2.4580812
05:46:03.686,-0.072686352,-0.032680128,-9.8116112,4.6156888,0.95959139,2.4813991
05:46:03.696,-0.088382363,-0.018948469,-9.826602,4.1556869,0.93006349,2.4404159
05:46:03.706,-0.099766299,-0.048757449,-9.7750273,3.5949433,0.93207943,2.5161245
05:46:03.716,-0.104446,-0.098383076,-9.8251963,3.745049,0.99514383,2.6082075
05:46:03.726,-0.10147189,-0.024927318,-9.7832537,3.2060893,0.97992045,2.6746926
05:46:03.736,-0.11126688,-0.077437952,-9.8785915,2.4382093,1.0505872,2.7980797
05:46:03.746,-0.096083447,-0.045793798,-9.7853765,1.2916417,1.0578352,2.94239
05:46:03.756,-0.092234753,-0.071931429,-9.8024273,0.27676672,1.0561337,2.9320889
05:46:03.766,-0.11119828,-0.036930125,-9.8527594,-0.3051717,1.0779825,2.9470732
05:46:03.776,-0.096228994,-0.061003458,-9.8642149,-1.1549783,1.0928795,2.9542809
05:46:03.786,-0.07863573,-0.093218103,-9.8039722,-1.8904202,1.0814377,2.932754
05:46:03.796,-0.10155132,-0.082881868,-9.8531694,-1.9161013,1.0237141,2.962991
05:46:03.806,-0.086231895,0.0093143778,-9.8678398,-1.5933527,0.99435359,2.9641733
05:46:03.816,-0.087893836,-0.06714619,-9.8257132,-1.801738,1.0046183,2.8858645
05:46:03.826,-0.084056877,-0.11363444,-9.8847322,-2.5270894,0.95576495,2.7960515
05:46:03.836,-0.097867057,-0.049810383,-9.8270359,-3.1781521,0.91603887,2.7492547
05:46:03.846,-0.088252127,-0.066401444,-9.8465443,-3.3408046,0.94503838,2.6860015
05:46:03.856,-0.10148577,-0.08363115,-9.7857466,-4.0530219,0.96493667,2.6520579
05:46:03.866,-0.080176532,-0.1060119,-9.843358,-5.3245354,1.0114655,2.641691
05:46:03.876,-0.083541512,-0.068094276,-9.8138905,-5.7838016,0.99373269,2.604533
05:46:03.886,-0.074339174,0.013191224,-9.8702526,-5.9086132,1.0108191,2.5460079
05:46:03.896,-0.086004905,-0.0043045371,-9.7751522,-5.2660699,0.95827967,2.5508258
05:46:03.906,-0.086810805,-0.0077848607,-9.8989344,-4.4733725,0.99679863,2.5576367
05:46:03.916,-0.080335118,0.036651213,-9.7975702,-4.5073738,0.94172972,2.5202067
05:46:03.926,-0.060838729,-0.004010919,-9.8462467,-4.8902125,0.92367965,2.5422142
05:46:03.936,-0.054537993,0.00098175555,-9.8358421,-5.2208586,0.95910788,2.5886779
05:46:03.946,-0.057910394,0.031919446,-9.8487129,-5.1638598,0.91524518,2.5441942
05:46:03.956,-0.045647413,0.086393364,-9.8195276,-4.3524427,0.85771972,2.491019
05:46:03.966,-0.067254096,0.028334485,-9.8402147,-4.4873705,0.86263013,2.4982278
05:46:03.976,-0.031560265,0.040677372,-9.8322239,-4.7787218,0.86419231,2.4950283
05:46:03.986,-0.031231433,0.008304961,-9.8252649,-4.1110811,0.78428686,2.5353096
05:46:03.996,-0.026308509,0.11272944,-9.8420382,-3.5589776,0.731004,2.6158235
05:46:04.006,-0.024142414,0.073180839,-9.7988701,-2.9605484,0.72646308,2.6592124
05:46:04.016,-0.055977162,0.087259926,-9.8243799,-2.0712361,0.63659185,2.6643069
05:46:04.026,-0.035680898,0.061020464,-9.8004112,-1.6262389,0.6676572,2.6313598
05:46:04.036,-0.032569334,0.12258034,-9.8183565,-0.56321841,0.74794686,2.6308458
05:46:04.046,-0.048412036,0.13061388,-9.7696905,0.35379016,0.7380147,2.5914991
05:46:04.056,-0.063002519,0.017860638,-9.8321238,0.43748048,0.78251231,2.5783513
05:46:04.066,-0.06005504,0.053404469,-9.8307667,0.039716955,0.80545306,2.5304804
05:46:04.076,-0.065162249,0.11784912,-9.8118515,-0.039399002,0.8692525,2.5619848
05:46:04.086,-0.046551529,0.050260946,-9.8199148,-0.47924918,0.88770962,2.450552
05:46:04.096,-0.010382122,0.059870146,-9.8510065,-0.44069335,0.90926135,2.3934972
05:46:04.106,-0.041354746,0.065022871,-9.8315458,-0.27669075,0.91857898,2.3109548
05:46:04.116,-0.045027226,0.039851058,-9.8186035,-0.089606218,0.95709473,2.2683344
05:46:04.126,-0.045132365,0.045815859,-9.8550472,0.23411907,0.93443632,2.2394955
05:46:04.136,-0.052451521,0.054988988,-9.812582,0.86021805,0.97529411,2.2891774
05:46:04.146,-0.05221644,0.050365198,-9.8783274,0.99110234,0.89157689,2.2768576
05:46:04.156,-0.038832378,0.075084664,-9.8127451,0.91687024,0.81690145,2.3265514
05:46:04.166,-0.0445062,0.049842954,-9.8559303,0.63305587,0.82970494,2.3868718
05:46:04.176,-0.035140935,0.068598703,-9.7893419,0.71978527,0.82061791,2.400975
05:46:04.186,-0.055719506,0.085022911,-9.8411217,0.95453125,0.79924458,2.3520572
05:46:04.196,-0.060463615,0.0094790589,-9.7955141,0.22197725,0.82794148,2.3883591
05:46:04.206,-0.030333124,0.045330483,-9.850359,-0.71006054,0.8822304,2.4046814
05:46:04.216,-0.047975674,0.090065017,-9.8065395,-0.66661727,0.89005315,2.3744466
05:46:04.226,-0.034441046,0.061023217,-9.8421507,-0.64149213,0.86523831,2.3733814
05:46:04.236,-0.055413995,-0.031237526,-9.7977381,-0.48310751,0.82267559,2.4431105
05:46:04.246,-0.026335152,0.060860753,-9.8107386,-0.22195594,0.83560836,2.3900723
05:46:04.256,-0.034852348,0.028307427,-9.8560686,-0.69585186,0.82793152,2.420748
05:46:04.266,-0.015914338,0.11664429,-9.7746344,-0.94337332,0.82702643,2.4778085
05:46:04.276,-0.018715549,0.043823242,-9.8473063,-1.3652378,0.79597789,2.4186499
05:46:04.286,-0.0087616006,0.097848639,-9.7902269,-1.4432912,0.80266136,2.3959336
05:46:04.296,-0.01491881,0.11858797,-9.8123722,-1.0452114,0.76527631,2.4130895
05:46:04.306,-0.0027734623,0.08607956,-9.7940016,-1.6866648,0.7701506,2.4306645
05:46:04.316,0.017192792,0.050483171,-9.8603392,-2.3159842,0.78005296,2.4968562
05:46:04.326,0.002836819,0.11880486,-9.7368393,-2.3686299,0.7729342,2.4382639
05:46:04.336,0.0085356198,0.066772811,-9.8596096,-2.7019083,0.76943415,2.5025449
05:46:04.346,-0.0034738404,0.095558748,-9.8294601,-2.8238506,0.73195875,2.5328712
05:46:04.357,-0.0071271285,0.055014145,-9.8113613,-2.8319621,0.70364004,2.5060201
05:46:04.366,-0.010831736,0.12143625,-9.778594,-2.422015,0.65638036,2.6452522
05:46:04.376,0.01510242,0.13177611,-9.8846388,-1.7273329,0.602391,2.6563201
05:46:04.386,0.011440548,0.13862269,-9.7863836,-1.7014167,0.52276236,2.7364745
05:46:04.396,0.019736368,0.17736524,-9.7933416,-1.2257618,0.45948857,2.7972434
05:46:04.406,0.007911806,0.23393101,-9.7805004,-0.36744377,0.51348227,2.8830194
05:46:04.416,0.02318484,0.17747484,-9.7440147,0.25039828,0.55120057,2.9221127
05:46:04.426,0.034189288,0.1625874,-9.7717171,1.4477702,0.54125959,2.943639
05:46:04.436,0.029663229,0.17589048,-9.8233032,1.6678627,0.52893072,2.8517888
05:46:04.446,0.02046641,0.089720219,-9.8103704,1.5053027,0.45813879,2.8737752
05:46:04.456,0.0037105412,0.13149825,-9.8163109,1.8875803,0.48033658,2.8987839
05:46:04.466,0.011510117,0.080461353,-9.7899284,2.0031321,0.47460881,2.8998015
05:46:04.476,-0.015951496,0.08331003,-9.7880478,1.6364844,0.37872067,2.8938618
05:46:04.486,0.0047443993,0.11127142,-9.8350611,1.4258715,0.42077336,2.9015906
05:46:04.496,0.024254763,0.10508151,-9.7821865,1.1570268,0.45968673,2.9046032
05:46:04.506,-0.021446267,0.033593331,-9.8052359,0.43731984,0.38283616,2.957998
05:46:04.516,-0.02980715,0.13305558,-9.810544,0.65965879,0.38121361,2.9507604
05:46:04.526,-0.010344588,0.15768766,-9.7825632,1.1622257,0.40857846,3.007565
05:46:04.536,0.0028075348,0.12424331,-9.8138161,1.2276915,0.29990765,3.0655165
05:46:04.546,-0.01675423,0.10492377,-9.8045969,1.0726981,0.28753018,3.0783429
05:46:04.556,0.0073092533,0.16236429,-9.8155479,1.0442778,0.2590245,3.140646
05:46:04.566,-0.027177546,0.17236568,-9.7630205,0.74965882,0.24286029,3.1945934
05:46:04.576,-0.0050539114,0.13417593,-9.8172112,1.1064727,0.22275734,3.1337898
05:46:04.586,-0.0013390186,0.10591532,-9.7507801,1.4097508,0.14674914,3.1432612
05:46:04.596,0.024317153,0.1582718,-9.7997236,1.0664086,0.16446622,3.125874
05:46:04.606,0.027293241,0.11262536,-9.7552862,0.6115858,0.181565,2.9409993
05:46:04.616,0.020926137,0.071729735,-9.8033648,0.37724525,0.22958352,3.0270724
05:46:04.626,0.038067453,0.075841397,-9.8013926,-0.49452132,0.23401901,2.9838238
05:46:04.636,0.070062928,0.093645133,-9.8165741,-1.2898654,0.31649381,3.0128393
05:46:04.646,0.033431139,0.050209537,-9.7787933,-2.4101655,0.19596606,3.091047
05:46:04.656,0.030489415,0.054201234,-9.8551388,-3.1713023,0.25026476,3.1223626
05:46:04.666,0.016402256,0.11279249,-9.7969236,-3.4108546,0.22347279,3.0939054
05:46:04.676,-0.0010282346,0.1277491,-9.8122444,-3.6509812,0.14715108,3.0659375
05:46:04.686,0.012925084,0.092517972,-9.8368731,-4.2931705,0.15876099,3.0057673
05:46:04.696,0.040380355,0.090849832,-9.7843466,-4.8786922,0.073629662,2.9008007
05:46:04.706,0.028239345,0.18195561,-9.7865944,-5.2069883,0.092586026,2.8779397
05:46:04.716,0.035454482,0.13250983,-9.8046751,-5.1517358,0.094696052,2.8736415
05:46:04.726,0.0052317427,0.10638839,-9.8047705,-5.2082953,0.072465271,2.8920395
05:46:04.736,0.006824811,0.16811699,-9.7653561,-5.4696002,0.053076867,2.924685
05:46:04.746,0.00074528443,0.20213491,-9.8109426,-5.2447572,0.059392255,2.9073827
05:46:04.756,0.030159174,0.2000331,-9.7523918,-4.2369704,0.00019681113,2.9505804
05:46:04.766,0.02133798,0.21319033,-9.8246593,-3.6557479,0.01473991,2.8648009
05:46:04.776,0.02085817,0.24857803,-9.7495394,-3.0887895,0.01202108,2.8315055
05:46:04.786,0.0062386156,0.24249828,-9.8127222,-2.8692811,-0.039821759,2.9253526
05:46:04.796,0.0087482622,0.20961931,-9.7709503,-3.0555024,-0.036568012,2.8788075
05:46:04.806,0.036118846,0.21782741,-9.8488111,-2.7222123,-0.064119637,2.8905413
05:46:04.816,0.022065092,0.26302502,-9.7703094,-2.6503522,-0.076746985,2.9349055
05:46:04.826,0.023619263,0.23809788,-9.8145018,-2.5199645,-0.11778016,2.977705
05:46:04.836,-7.753363e-05,0.23132768,-9.7601805,-2.1509523,-0.11813835,3.0323327
05:46:04.846,0.012498514,0.28815824,-9.7855635,-1.5840377,-0.088955142,2.9186368
05:46:04.856,0.024500899,0.29100925,-9.7906189,-1.0715933,-0.060343832,2.9446261
05:46:04.866,0.041974351,0.30726182,-9.7737989,-0.46584427,-0.10644408,3.0025296
05:46:04.876,0.044909358,0.21831331,-9.7896671,-0.13928413,-0.11275678,2.9525931
05:46:04.886,0.017088752,0.23320666,-9.7848692,-0.094213627,-0.13894112,3.0622172
05:46:04.896,0.031532086,0.27085274,-9.7826157,0.40515691,-0.13701756,3.0850339
05:46:04.906,0.028673861,0.26183212,-9.7366076,1.1368216,-0.14549656,3.1187706
05:46:04.916,0.023947826,0.19232962,-9.7975922,1.6182119,-0.090547465,3.156333
05:46:04.926,0.02552969,0.29794896,-9.7425385,1.878355,-0.15122978,3.2542992
05:46:04.936,0.032349918,0.25395435,-9.8006773,2.6478832,-0.15814473,3.2496362
05:46:04.946,0.0066608917,0.25385085,-9.7387152,3.6166508,-0.16412373,3.2890425
05:46:04.956,0.028239846,0.23842323,-9.8140078,3.9674222,-0.13761581,3.2470925
05:46:04.966,0.047779657,0.26165202,-9.7651129,3.9694276,-0.16436599,3.2390544
05:46:04.976,0.022783838,0.21606506,-9.7813559,4.1407156,-0.22798505,3.2047787
05:46:04.986,0.027926318,0.20388912,-9.786973,4.1208572,-0.23173878,3.187264
05:46:04.996,-0.010386198,0.18552749,-9.8155107,4.378428,-0.28998238,3.1960461
05:46:05.006,0.018385338,0.21638042,-9.7586699,4.6271992,-0.32884702,3.1281726
05:46:05.016,0.017953657,0.12700129,-9.7447004,4.4847484,-0.27983195,3.183744
05:46:05.026,0.028434459,0.13306709,-9.8022346,4.2328739,-0.31989047,3.185118
05:46:05.036,0.0010284026,0.16494498,-9.7540703,4.0492353,-0.31118822,3.1856251
05:46:05.046,0.023017021,0.14436094,-9.7857361,4.3811345,-0.29080638,3.2107477
05:46:05.056,-0.01138745,0.15915816,-9.7208719,4.872726,-0.3300367,3.210403
05:46:05.066,0.0039807796,0.10487241,-9.8123026,4.6506348,-0.3078478,3.1323526
05:46:05.076,0.0088438177,0.17358379,-9.7469282,4.8317232,-0.31374535,3.1911104
05:46:05.086,0.011731982,0.15996271,-9.8062487,5.0458069,-0.29138461,3.1780117
05:46:05.096,0.019988405,0.14957975,-9.7369719,5.2473788,-0.36458042,3.1791983
05:46:05.106,0.025138116,0.1282842,-9.8253574,5.9921589,-0.33411628,3.13188
05:46:05.116,0.038129639,0.16010033,-9.76933,6.377408,-0.33966953,3.1520739
05:46:05.126,0.026266417,0.10041606,-9.7875776,6.6626143,-0.37912655,3.1943607
05:46:05.136,-0.018788612,0.097260289,-9.7408476,7.3712335,-0.46644747,3.2818434
05:46:05.146,-0.0076045953,0.067308664,-9.8125868,8.0551338,-0.48959732,3.222841
05:46:05.156,0.030380007,0.10287032,-9.7146215,8.6764269,-0.48487872,3.2482185
05:46:05.166,-0.0046386453,0.04062517,-9.738555,9.2989664,-0.52515721,3.2733016
05:46:05.176,0.039468683,-0.0041113161,-9.7930813,8.7691898,-0.47725511,3.2368283
05:46:05.186,0.0094358968,0.014497462,-9.7164249,8.4271917,-0.4796679,3.3114898
05:46:05.196,-0.0079398435,0.0074441647,-9.8265877,7.773169,-0.50625312,3.2627516
05:46:05.206,0.019429149,-0.052278582,-9.7444038,6.4527903,-0.46364057,3.2586062
05:46:05.216,0.00031769052,0.0020076009,-9.7663383,5.8001842,-0.47555992,3.2670128
05:46:05.226,0.015987841,0.0056665251,-9.7395725,5.7891288,-0.51222444,3.1948669
05:46:05.236,0.01504621,-0.04750257,-9.8194895,5.0500841,-0.51203263,3.2158177
05:46:05.246,0.0064462824,-0.04915591,-9.7020302,4.7735362,-0.5317874,3.3059399
05:46:05.256,0.0056153028,-0.097895727,-9.8125639,4.5612454,-0.5712086,3.2947621
05:46:05.266,-0.015495785,-0.05554774,-9.7394428,4.2643046,-0.57829452,3.2211192
05:46:05.276,-0.01201632,-0.065137297,-9.758234,4.8931742,-0.6298489,3.2732146
05:46:05.286,-0.016446248,-0.1241197,-9.7522068,5.2492447,-0.6480543,3.3061113
05:46:05.296,-0.031917617,-0.087788075,-9.8003616,4.8287206,-0.62577409,3.3369246
05:46:05.306,-0.042896353,-0.062987752,-9.7572556,4.2414632,-0.65941155,3.3561544
05:46:05.316,-0.031702746,-0.13343556,-9.7739782,3.6318278,-0.62118912,3.3234706
05:46:05.326,-0.038997833,-0.10620221,-9.7887697,3.3266809,-0.66036391,3.2724442
05:46:05.336,-0.017832758,-0.11566397,-9.7763081,3.0685232,-0.67424822,3.2392826
05:46:05.346,-0.028983347,-0.17000572,-9.7951937,2.4485371,-0.62373728,3.3172677
05:46:05.356,-0.034742862,-0.13586137,-9.7258739,1.3042704,-0.65375835,3.3485842
05:46:05.366,-0.023061655,-0.106548,-9.7497387,0.95210552,-0.63534826,3.2686787
05:46:05.376,-0.019759195,-0.10404772,-9.7346563,1.2355248,-0.62525994,3.205395
05:46:05.386,-0.042048782,-0.071730182,-9.7618341,1.4708538,-0.62986869,3.1980121
05:46:05.396,0.004433475,-0.090651743,-9.693512,1.6791699,-0.6144039,3.1437073
05:46:05.406,0.017930545,-0.14576851,-9.7910452,2.0208979,-0.53199923,3.2253566
05:46:05.416,-0.023271807,-0.099306598,-9.7295628,2.1466215,-0.52948302,3.1616049
05:46:05.426,-0.017128959,-0.11777459,-9.8091564,2.1973116,-0.55861872,3.156424
05:46:05.436,-0.022683535,-0.18708017,-9.7669468,1.9951636,-0.62990606,3.2732646
05:46:05.446,-0.061035372,-0.16526948,-9.8009539,1.8657641,-0.60137767,3.2606828
05:46:05.456,-0.050902035,-0.11179851,-9.7806911,1.8482941,-0.69818628,3.380384
05:46:05.466,-0.0606873,-0.13784067,-9.7900829,1.569263,-0.68633538,3.3896427
05:46:05.476,-0.018237576,-0.16232428,-9.7402821,1.2509301,-0.74634588,3.3795235
05:46:05.486,-0.055771288,-0.15904051,-9.7617788,0.73675931,-0.75739217,3.3573458
05:46:05.496,-0.038008478,-0.12729415,-9.7842302,0.43398786,-0.76055086,3.3887255
05:46:05.506,-0.051751502,-0.15470424,-9.716857,0.33984804,-0.72614253,3.4191287
05:46:05.516,-0.046778496,-0.20759283,-9.7609234,-0.0073842695,-0.73121953,3.4613147
05:46:05.526,-0.053661462,-0.10110968,-9.7551003,-0.40472537,-0.72589427,3.3883376
05:46:05.536,-0.030267794,-0.14972179,-9.8014269,-0.50822186,-0.72955495,3.4311461
05:46:05.546,-0.046092492,-0.12681921,-9.7128134,-0.3800211,-0.78198153,3.3887415
05:46:05.556,-0.050334558,-0.18785812,-9.8143311,-0.74109054,-0.79533005,3.3313847
05:46:05.566,-0.052660976,-0.13611361,-9.7432384,-1.6093258,-0.79155594,3.2596483
05:46:05.576,-0.041237645,-0.17239586,-9.8048754,-2.3163986,-0.75909156,3.2337263
05:46:05.586,-0.029570578,-0.17012067,-9.7440319,-3.2499413,-0.74809182,3.1676638
05:46:05.596,-0.037083775,-0.17771542,-9.7872953,-3.6902428,-0.76950628,3.1068349
05:46:05.606,-0.029443329,-0.098000921,-9.7601337,-4.1869998,-0.73216021,3.0858843
05:46:05.616,-0.028694721,-0.16553117,-9.7642927,-4.0685263,-0.70376557,3.0645804
05:46:05.626,-0.068910271,-0.11426691,-9.7765369,-3.7439847,-0.77492052,3.083792
05:46:05.636,-0.081288598,-0.12261112,-9.790617,-3.6742878,-0.75017828,3.1072297
05:46:05.646,-0.074953742,-0.038475852,-9.7926159,-3.1125169,-0.73329324,3.1775768
05:46:05.656,-0.093840398,-0.082425162,-9.7124901,-2.6110165,-0.78010923,3.2056761
05:46:05.666,-0.065225616,-0.041415893,-9.7851152,-2.581876,-0.81824756,3.2224548
05:46:05.676,-0.042229135,-0.0096283732,-9.7509298,-1.5020344,-0.75758117,3.2434521
05:46:05.686,-0.06554985,0.0012420682,-9.7865658,-1.0144738,-0.79244381,3.219727
05:46:05.696,-0.063595846,-0.075129502,-9.7434301,-1.0452127,-0.85374045,3.1502955
05:46:05.706,-0.10479712,-0.13795155,-9.8476076,-1.5461411,-0.83647072,3.1530881
05:46:05.716,-0.11005799,-0.10222029,-9.7206678,-2.7124574,-0.94328731,3.1131754
05:46:05.726,-0.066125117,-0.1021308,-9.815835,-3.180402,-0.87613666,3.0782077
05:46:05.736,-0.084618919,-0.10634244,-9.7360878,-3.3260839,-0.92609984,3.1001854
05:46:05.746,-0.082120903,-0.11026826,-9.8129797,-3.5127509,-0.89030635,3.0896094
05:46:05.756,-0.072520509,-0.065859601,-9.7356453,-3.3265707,-0.91118687,3.0424466
05:46:05.766,-0.079012513,-0.036227498,-9.7632847,-3.0607741,-0.87512863,3.0220602
05:46:05.776,-0.082882017,-0.073012695,-9.7588968,-3.0040762,-0.90787953,2.9042828
05:46:05.786,-0.072140686,-0.04619655,-9.8033657,-2.9769223,-0.86872983,2.9201469
05:46:05.796,-0.05721847,0.01378333,-9.7401218,-3.121424,-0.91548651,2.9137735
05:46:05.806,-0.063245103,0.0011990623,-9.731266,-2.5962059,-0.86582851,2.9887252
05:46:05.817,-0.11610156,-0.0078732334,-9.7857504,-1.8142887,-0.83221769,3.0701573
05:46:05.826,-0.086493947,0.015008196,-9.7135372,-1.0369487,-0.85091954,3.1154137
05:46:05.836,-0.0780048,-0.026013501,-9.7355795,-0.28014335,-0.8549583,3.2035396
05:46:05.846,-0.10149525,0.0094500445,-9.7563486,0.4921127,-0.82603031,3.3389242
05:46:05.856,-0.079328567,-0.0036045981,-9.8077192,0.86888444,-0.83636212,3.3356071
05:46:05.866,-0.073561341,0.019435992,-9.7177544,2.1131718,-0.87019724,3.3378017
05:46:05.876,-0.1079854,0.0016485932,-9.7692823,2.8824961,-0.86624098,3.2715135
05:46:05.886,-0.097722627,-0.053219818,-9.7348557,2.5923538,-0.87606537,3.2286062
05:46:05.896,-0.085137732,-0.074757352,-9.8060246,2.4159315,-0.7935257,3.1557217
05:46:05.906,-0.082325518,-0.02504807,-9.7374201,2.0444016,-0.77246767,3.0583289
05:46:05.916,-0.097428046,-0.089593984,-9.779274,1.7496313,-0.78860712,2.95612
05:46:05.926,-0.10696173,-0.14387023,-9.7513523,1.7206628,-0.8273074,2.9408903
05:46:05.936,-0.1067066,-0.10546426,-9.7664671,1.6623431,-0.84348965,2.9016197
05:46:05.946,-0.08982981,-0.049221061,-9.7528782,1.4970325,-0.89855599,2.8921425
05:46:05.956,-0.093182392,-0.07280948,-9.7368317,1.6861547,-0.90270525,2.8629231
05:46:05.966,-0.088627599,-0.073889047,-9.7971773,1.8655295,-0.87744057,2.8977056
05:46:05.976,-0.11952829,-0.02378197,-9.7358227,2.5417287,-0.92924672,2.9294567
05:46:05.986,-0.13056622,-0.01435628,-9.7720375,4.1892996,-0.93286908,2.9256458
05:46:05.996,-0.098832615,-0.0092639336,-9.731945,5.4435925,-0.88704228,2.9753916
05:46:06.006,-0.091035582,-0.030883804,-9.828372,6.6047254,-0.91099811,3.0289299
05:46:06.016,-0.11054408,0.0065988852,-9.7487402,7.5299878,-0.90222335,3.0952065
05:46:06.026,-0.11812426,-0.10053977,-9.7786322,7.8838329,-0.88780224,3.2674439
05:46:06.036,-0.12749873,-0.1104151,-9.7258253,8.7763166,-0.80615079,3.4913199
05:46:06.046,-0.13935378,-0.097244188,-9.7691584,9.7217093,-0.79663926,3.55844
05:46:06.056,-0.15182738,-0.053071223,-9.776165,10.507198,-0.77074242,3.666117
05:46:06.066,-0.16021436,-0.11576535,-9.8039474,11.169468,-0.77828687,3.73475
05:46:06.076,-0.12689807,-0.19199088,-9.7748871,11.233018,-0.75770926,3.7484994
05:46:06.086,-0.11045659,-0.16917706,-9.8150139,11.238243,-0.78373861,3.7050719
05:46:06.096,-0.13109542,-0.19305111,-9.8142738,11.013779,-0.72993892,3.6956851
05:46:06.106,-0.13231719,-0.29707181,-9.772233,9.7173481,-0.67202365,3.7451108
05:46:06.116,-0.11783379,-0.30018523,-9.8047581,8.1262674,-0.65203309,3.7584221
05:46:06.126,-0.11619387,-0.28271455,-9.7913485,6.7478023,-0.60024524,3.6870413
05:46:06.136,-0.13209525,-0.35793838,-9.798481,5.4470639,-0.51370305,3.8396118
05:46:06.146,-0.13788646,-0.30811977,-9.7322989,4.4781189,-0.48238394,3.7982774
05:46:06.156,-0.13458487,-0.29104081,-9.8258295,3.6104496,-0.51880199,3.7474239
05:46:06.166,-0.15364538,-0.25888243,-9.7820492,2.2550051,-0.41466761,3.6725039
05:46:06.176,-0.13511759,-0.27920312,-9.7683468,1.6355641,-0.43833333,3.5654507
05:46:06.186,-0.1212941,-0.32639998,-9.764019,1.0360051,-0.46103668,3.4319739
05:46:06.196,-0.15259533,-0.3307316,-9.7977247,0.48196366,-0.3896195,3.4762809
05:46:06.206,-0.13185066,-0.26280662,-9.7450447,-0.080879606,-0.40321007,3.5723195
05:46:06.216,-0.12759399,-0.31134361,-9.7685518,-0.017806174,-0.37209123,3.5378971
05:46:06.226,-0.13206199,-0.27326468,-9.7770605,0.3980189,-0.40054673,3.5782464
05:46:06.236,-0.1393168,-0.33833697,-9.7828712,0.22705294,-0.36172029,3.6868653
05:46:06.246,-0.14809756,-0.30530915,-9.7782936,-0.26301092,-0.41871369,3.7318821
05:46:06.256,-0.17339572,-0.26323482,-9.7278309,-0.34784532,-0.45185474,3.8026271
05:46:06.266,-0.14923123,-0.27873141,-9.7949209,0.21318457,-0.4626196,3.7862253
05:46:06.276,-0.15688807,-0.28879821,-9.7616768,0.85818529,-0.50555795,3.7203367
05:46:06.286,-0.14835498,-0.26128426,-9.8001041,0.58845305,-0.54737246,3.6922467
05:46:06.296,-0.14620426,-0.38369215,-9.7433043,-0.55761296,-0.54526466,3.7194481
05:46:06.306,-0.14810562,-0.36766019,-9.8056688,-1.8309804,-0.53732806,3.7220469
05:46:06.316,-0.17029527,-0.31380418,-9.7357159,-3.1049659,-0.54743141,3.6769321
05:46:06.326,-0.14719684,-0.30030078,-9.773735,-4.2440844,-0.48396936,3.6894236
05:46:06.336,-0.13207285,-0.30755416,-9.7200565,-4.595202,-0.53745949,3.6306856
05:46:06.346,-0.1308457,-0.25526339,-9.7842197,-4.7620845,-0.51186019,3.5397115
05:46:06.356,-0.12773816,-0.24453576,-9.7216711,-4.8530598,-0.4868812,3.5390651
05:46:06.366,-0.15816292,-0.23938052,-9.7594595,-4.5837331,-0.53845346,3.5420523
05:46:06.376,-0.16667403,-0.32336885,-9.7412148,-4.778111,-0.60424453,3.478652
05:46:06.386,-0.16466986,-0.30157414,-9.7879686,-5.1524382,-0.58911866,3.4603496
05:46:06.396,-0.17804752,-0.2106244,-9.7398005,-5.1764045,-0.67805833,3.5519147
05:46:06.406,-0.16633536,-0.25877172,-9.7404375,-5.2238874,-0.7266708,3.4717243
05:46:06.416,-0.1885761,-0.26212871,-9.7406645,-5.6797872,-0.72923023,3.552938
05:46:06.426,-0.18911259,-0.21278933,-9.7353325,-6.0593209,-0.71602595,3.5383658
05:46:06.436,-0.18808945,-0.17934178,-9.7692509,-6.9036551,-0.70377785,3.6367538
05:46:06.446,-0.16784447,-0.18058543,-9.727355,-7.1003575,-0.7540617,3.5707612
05:46:06.456,-0.1893378,-0.20096955,-9.766428,-7.4112911,-0.7256785,3.5681527
05:46:06.466,-0.18552007,-0.11814685,-9.7507839,-7.5370455,-0.79148108,3.5226169
05:46:06.476,-0.20718537,-0.08423572,-9.7682257,-7.287931,-0.83035815,3.474498
05:46:06.486,-0.18712504,-0.13719974,-9.7126436,-7.4934611,-0.85016811,3.4484153
05:46:06.496,-0.16971111,-0.17364512,-9.78267,-7.5718641,-0.82723349,3.4669662
05:46:06.506,-0.1646871,-0.083458915,-9.6727009,-7.9076118,-0.80324388,3.4308078
05:46:06.516,-0.14289407,-0.11187331,-9.7248192,-8.2292461,-0.77137136,3.3638325
05:46:06.526,-0.11521211,-0.089110218,-9.6719379,-8.1723261,-0.71710825,3.3432899
05:46:06.536,-0.14804454,-0.093198605,-9.7303715,-7.9213285,-0.69188428,3.2960448
05:46:06.546,-0.15480633,-0.053078115,-9.7165136,-7.8464417,-0.67281634,3.2536893
05:46:06.556,-0.1702719,-0.0073022442,-9.7296619,-7.3415599,-0.67411947,3.3107343
05:46:06.566,-0.16833997,-0.086493507,-9.7123756,-6.7913408,-0.70261502,3.3045943
05:46:06.576,-0.16552722,-0.017222594,-9.7365961,-6.0390258,-0.72741306,3.3232105
05:46:06.586,-0.1520088,0.024083048,-9.7330961,-5.3212309,-0.71851993,3.3481567
05:46:06.596,-0.13437234,-0.02875234,-9.6839943,-4.482636,-0.74566561,3.2803016
05:46:06.606,-0.1619368,-0.038288321,-9.764946,-3.9414182,-0.73561203,3.1931992
05:46:06.616,-0.18102571,0.047512643,-9.733943,-3.4194272,-0.75529569,3.1145802
05:46:06.626,-0.20066571,-0.01963005,-9.7571487,-3.6339815,-0.78395385,3.0911841
05:46:06.636,-0.17451096,0.020098651,-9.6670465,-3.7584987,-0.79643863,3.0880256
05:46:06.646,-0.19107513,-0.019527124,-9.7374344,-3.5518694,-0.68582493,2.9950662
05:46:06.656,-0.14187847,0.063617736,-9.6970062,-3.8070445,-0.7513417,2.958921
05:46:06.666,-0.17908119,-0.0072816373,-9.7662258,-4.0618472,-0.68281651,2.9691248
05:46:06.676,-0.1621287,0.011395854,-9.6519623,-4.2391186,-0.66049069,2.9319112
05:46:06.686,-0.19002086,0.080243073,-9.7503309,-3.4863808,-0.65557337,3.0210083
05:46:06.696,-0.18809171,0.08961422,-9.7033176,-2.3077879,-0.67453235,3.1126919
05:46:06.706,-0.18986721,0.072946414,-9.6966505,-1.9503146,-0.61756462,3.1394157
05:46:06.716,-0.19687219,0.061383791,-9.7628727,-1.9507543,-0.69048715,3.1700704
05:46:06.726,-0.1908067,0.16059376,-9.7290497,-1.3233508,-0.69207519,3.1702728
05:46:06.736,-0.19219722,0.056149997,-9.7759705,-1.0600332,-0.70356697,3.1213646
05:46:06.746,-0.21080279,0.062446184,-9.7329226,-1.2096325,-0.70719618,3.1110404
05:46:06.756,-0.19058493,0.05810627,-9.7831049,-1.2491308,-0.81277704,3.0923283
05:46:06.766,-0.18798652,0.082078852,-9.7083578,-0.90494168,-0.79997641,3.0658524
05:46:06.776,-0.19781229,0.16906416,-9.7379656,-0.53984171,-0.83653766,2.9174826
05:46:06.786,-0.18553025,-0.020471528,-9.6967688,-0.23566611,-0.82124758,2.8871846
05:46:06.796,-0.17552884,0.065237649,-9.789278,-0.93342429,-0.8363995,2.8439803
05:46:06.806,-0.17761782,0.085733496,-9.6959877,-1.2804874,-0.82568753,2.8234115
05:46:06.816,-0.19325021,0.11476423,-9.7480726,-1.8896081,-0.79727364,2.7299156
05:46:06.826,-0.20346865,0.087898448,-9.7244768,-1.7432278,-0.86809576,2.7093768
05:46:06.836,-0.21893191,0.15456097,-9.7843513,-1.6449319,-0.8429293,2.5459588
05:46:06.846,-0.18897015,0.030178893,-9.719264,-1.1965162,-0.91762698,2.5588899
05:46:06.856,-0.20282756,0.13001783,-9.6931038,-0.71949577,-0.88923341,2.5463438
05:46:06.866,-0.21002039,0.15250498,-9.7676735,-0.41128498,-0.90242714,2.6106911
05:46:06.876,-0.22136299,0.095112607,-9.7434912,0.03409604,-0.87238258,2.5264084
05:46:06.886,-0.19393398,0.11117069,-9.716217,1.1504949,-0.95154119,2.5558722
05:46:06.896,-0.19679977,0.11677933,-9.727704,0.86583644,-0.93478155,2.4721997
05:46:06.906,-0.20342264,0.074444234,-9.7942352,1.1617442,-0.93311387,2.455878
05:46:06.916,-0.1952403,0.093811154,-9.7022943,1.8627452,-0.90458834,2.4067879
05:46:06.926,-0.1942341,0.054025363,-9.7577858,2.2149627,-0.98213774,2.4376187
05:46:06.936,-0.20051819,0.082848974,-9.7122679,2.0395951,-1.003633,2.4446955
05:46:06.946,-0.21770705,0.0060287393,-9.7935858,1.7256863,-0.95516235,2.4710424
05:46:06.956,-0.20243116,0.10352224,-9.709878,1.305459,-0.98858184,2.4393921
05:46:06.966,-0.22870298,0.1103723,-9.7478504,1.7575678,-1.0669885,2.2811935
05:46:06.976,-0.20855029,0.16283965,-9.7045555,2.7039912,-1.0885429,2.23737
05:46:06.986,-0.20455369,-0.064880513,-9.7839203,2.9153557,-1.0069588,2.1895328
05:46:06.996,-0.19348222,0.092800617,-9.7023773,2.7926385,-1.0412506,2.175849
05:46:07.006,-0.21797381,0.10908946,-9.7692671,2.3040888,-1.0239543,2.0863724
05:46:07.016,-0.26765513,0.046118595,-9.7390156,2.2894847,-1.044065,2.1013186
05:46:07.026,-0.26252839,0.03246494,-9.7307234,2.5793169,-1.0159403,1.8475776
05:46:07.036,-0.22300833,0.086859278,-9.7610531,2.8676963,-1.0147688,1.8575763
05:46:07.046,-0.24049705,0.04277971,-9.728363,2.6636145,-0.98654461,1.7550939
05:46:07.056,-0.24753532,0.052501202,-9.7611055,2.9160769,-1.0454166,1.7167814
05:46:07.066,-0.24152987,-0.01810348,-9.7870989,1.9036876,-1.0655259,1.6112624
05:46:07.076,-0.24463187,0.04074166,-9.7728987,1.4522595,-1.0428458,1.5919981
05:46:07.086,-0.24872464,-0.02014092,-9.7211409,0.79477751,-1.0633609,1.4835138
05:46:07.096,-0.25670737,-0.11114478,-9.8213282,0.26823914,-1.074227,1.4886004
05:46:07.106,-0.23692039,0.043170247,-9.7104473,0.34513623,-1.0735154,1.3952513
05:46:07.116,-0.2453167,-0.034113768,-9.7829428,0.35742095,-1.0237314,1.3357744
05:46:07.126,-0.26164177,-0.07204169,-9.7324104,-0.55245143,-1.0795368,1.304732
05:46:07.136,-0.27102366,-0.047246434,-9.7691212,-1.2457482,-1.1058424,1.225198
05:46:07.146,-0.23914778,0.031334598,-9.7641134,-2.147063,-1.043317,1.1957598
05:46:07.156,-0.23208264,0.052506313,-9.7567692,-2.4024568,-1.0726042,1.2165564
05:46:07.166,-0.22804804,-0.066357896,-9.7290001,-2.3707767,-1.0476729,1.1425999
05:46:07.176,-0.2462537,-0.025183367,-9.7394238,-2.3650022,-1.0733781,1.1605953
05:46:07.186,-0.235485,0.088131391,-9.735116,-2.4587023,-1.0531793,1.1872829
05:46:07.196,-0.25123206,-0.0273537,-9.7489042,-2.5626569,-1.0543783,1.227137
05:46:07.206,-0.24444842,-0.049316093,-9.7486782,-2.6352065,-1.0321757,1.1618886
05:46:07.216,-0.2564702,0.042276219,-9.7382374,-2.6475375,-1.076377,1.0217264
05:46:07.226,-0.25362664,0.021442873,-9.8117447,-3.0125053,-1.085938,0.9485274
05:46:07.236,-0.26728851,-0.025546065,-9.7494888,-3.777354,-1.0743697,0.85533041
05:46:07.246,-0.26008496,-0.036399268,-9.7542162,-4.3050313,-1.0188855,0.82806838
05:46:07.256,-0.27341729,0.016939113,-9.7643995,-5.0964241,-1.0670943,0.72269422
05:46:07.266,-0.25699314,0.06137028,-9.7778273,-5.4073343,-1.0162086,0.59999549
05:46:07.276,-0.22579138,-0.01659308,-9.7162514,-5.1408978,-1.0326594,0.59887278
05:46:07.286,-0.27443632,0.006229423,-9.7646694,-5.6474452,-1.0015467,0.5175696
05:46:07.296,-0.27090314,0.11108612,-9.7040539,-6.0428262,-0.99165314,0.4445425
05:46:07.306,-0.28141254,0.084305897,-9.79424,-5.7492676,-0.94433784,0.41569272
05:46:07.316,-0.27984348,0.1387839,-9.7597637,-5.6681132,-0.98648721,0.40412012
05:46:07.326,-0.30181071,0.081871361,-9.7633009,-5.3332739,-0.93998319,0.24180122
05:46:07.336,-0.26920038,0.10491688,-9.7937641,-5.2531443,-1.0042982,0.32850894
05:46:07.346,-0.2934829,0.10973641,-9.7583485,-5.5662093,-0.8893643,0.34788498
05:46:07.356,-0.28272766,0.1023894,-9.7316828,-5.6154737,-0.88027328,0.43447965
05:46:07.366,-0.31026351,0.091759712,-9.7767134,-5.1507192,-0.84297562,0.48815945
05:46:07.376,-0.29167795,0.1794976,-9.7727013,-5.0502653,-0.81695306,0.49533382
05:46:07.386,-0.29383314,0.16157576,-9.7136383,-4.2538171,-0.76582968,0.53626388
05:46:07.396,-0.29783997,0.148123,-9.8135691,-3.2922075,-0.7448343,0.49407917
05:46:07.406,-0.3176327,0.23826919,-9.6778345,-2.5450642,-0.72969103,0.48932108
05:46:07.416,-0.29805219,0.17607599,-9.8484926,-2.1807697,-0.68858325,0.44255856
05:46:07.426,-0.29229006,0.16170694,-9.7382641,-2.5192053,-0.79639578,0.35972375
05:46:07.436,-0.29004371,0.13606912,-9.7721834,-3.2680624,-0.74656194,0.37475368
05:46:07.446,-0.29841051,0.2042702,-9.7446547,-3.6778903,-0.66129899,0.35885939
05:46:07.456,-0.31576237,0.19187044,-9.8417463,-3.5666642,-0.66798592,0.34150276
05:46:07.466,-0.28096381,0.15277052,-9.6939888,-3.6548495,-0.70567322,0.30856061
05:46:07.476,-0.302288,0.14184892,-9.8096762,-3.9560852,-0.64338201,0.38422686
05:46:07.486,-0.30725443,0.20932879,-9.7931824,-3.975101,-0.71730876,0.33095065
05:46:07.496,-0.29249746,0.15178858,-9.7618456,-3.8363628,-0.683644,0.27855545
05:46:07.506,-0.33401406,0.18557981,-9.7382278,-3.5666506,-0.71388274,0.21981004
05:46:07.516,-0.31764555,0.20830837,-9.7633038,-3.3774848,-0.62803257,0.20593737
05:46:07.526,-0.27388516,0.19271745,-9.7806835,-3.9198318,-0.68622291,0.18138033
05:46:07.536,-0.27309981,0.16092576,-9.7747421,-4.8929949,-0.69798917,0.15293446
05:46:07.546,-0.27023017,0.19949433,-9.7634211,-5.6677938,-0.71251726,0.082744271
05:46:07.556,-0.30664533,0.19860968,-9.7495756,-6.1837902,-0.68028593,0.0016358997
05:46:07.566,-0.31187278,0.24527234,-9.7791958,-6.2550011,-0.64437878,0.00094396708
05:46:07.576,-0.2811636,0.19413696,-9.7080889,-6.5846949,-0.57696742,-0.02564434
05:46:07.586,-0.2702364,0.17649069,-9.7556849,-6.4128213,-0.58529824,-0.064757772
05:46:07.596,-0.29323342,0.24811782,-9.7780142,-6.0520473,-0.5965057,-0.10974091
05:46:07.606,-0.2772153,0.20923403,-9.77001,-6.2199254,-0.52971745,-0.085471034
05:46:07.616,-0.30107832,0.18332624,-9.7238388,-6.6300058,-0.61713254,-0.11503996
05:46:07.626,-0.32770291,0.27242419,-9.7669992,-7.0233908,-0.55859816,-0.14850742
05:46:07.636,-0.32405135,0.35864708,-9.7411098,-6.6655102,-0.59020782,-0.23972023
05:46:07.646,-0.32463184,0.33216777,-9.7623472,-5.9376292,-0.54589856,-0.19029094
05:46:07.656,-0.32598415,0.27841982,-9.7380924,-5.9860277,-0.55252129,-0.24288116
05:46:07.666,-0.32613271,0.36347899,-9.716918,-6.0189281,-0.55604953,-0.175983
05:46:07.676,-0.3426702,0.38845605,-9.7961407,-4.90132,-0.48760638,-0.1545739
05:46:07.686,-0.34179115,0.35268578,-9.6629267,-3.74529,-0.48064652,-0.20060326
05:46:07.696,-0.34713611,0.32468212,-9.7400255,-2.7081852,-0.53084487,-0.25720039
05:46:07.706,-0.31355801,0.36514652,-9.7250366,-2.1229115,-0.52099502,-0.25858417
05:46:07.716,-0.29449287,0.2968564,-9.7933779,-2.3348,-0.54166204,-0.23594393
05:46:07.726,-0.30412531,0.32966152,-9.674016,-2.5751886,-0.49295583,-0.22253628
05:46:07.736,-0.36002094,0.32505035,-9.7400932,-2.5650368,-0.49603951,-0.21935143
05:46:07.746,-0.33350778,0.37454012,-9.7098742,-2.6390927,-0.44585055,-0.16445203
05:46:07.756,-0.3099457,0.37023592,-9.7398415,-2.3940053,-0.42156547,-0.24512754
05:46:07.766,-0.31847662,0.36681914,-9.7092266,-2.2281585,-0.40384635,-0.22039405
05:46:07.776,-0.36112192,0.38414311,-9.7599125,-2.0133269,-0.40596357,-0.21274178
05:46:07.786,-0.35102999,0.46134871,-9.7150745,-0.64364147,-0.49165797,-0.22829682
05:46:07.796,-0.34527829,0.35743254,-9.7300596,0.28968769,-0.48040238,-0.21011181
05:46:07.806,-0.33901775,0.34978867,-9.7519503,-0.19371456,-0.42259654,-0.033368092
05:46:07.816,-0.33791816,0.45863721,-9.7152967,-0.025150727,-0.45826977,0.083394423
05:46:07.826,-0.34211978,0.38737088,-9.7837868,0.63500571,-0.4967986,0.16914259
05:46:07.836,-0.34590051,0.41240448,-9.6931505,1.0625315,-0.42472446,0.26721343
05:46:07.846,-0.35140452,0.39916128,-9.7487841,1.3268948,-0.51260751,0.3285327
05:46:07.856,-0.33279464,0.41805786,-9.7414589,1.6830798,-0.49801776,0.29862773
05:46:07.866,-0.34123793,0.40402222,-9.8075342,1.8198252,-0.46525756,0.27874595
05:46:07.876,-0.30118138,0.37277505,-9.6481342,1.4487927,-0.44925827,0.27243444
05:46:07.886,-0.35413808,0.31681821,-9.7826366,0.89160222,-0.4300786,0.17232162
05:46:07.896,-0.34517768,0.45252958,-9.718955,0.85877687,-0.32976928,0.22533979
05:46:07.906,-0.32423666,0.34175724,-9.7464819,1.2821059,-0.27099115,0.18807951
05:46:07.916,-0.31802514,0.33235556,-9.7166481,1.4526558,-0.26729533,0.12891112
05:46:07.926,-0.3307077,0.30150598,-9.7443361,0.93791211,-0.2089968,0.10283466
05:46:07.936,-0.31513399,0.3662259,-9.7466011,0.065744989,-0.16986896,0.11884326
05:46:07.946,-0.32412651,0.35449204,-9.7034817,-0.64222974,-0.13597858,0.056613199
05:46:07.956,-0.32220814,0.34186721,-9.7266273,-1.3335716,-0.1584141,0.0042486889
05:46:07.966,-0.36404973,0.37681723,-9.7229567,-1.651556,-0.099943072,-0.012324492
05:46:07.976,-0.33867618,0.43284503,-9.749115,-1.6644739,-0.13312759,-0.024400914
05:46:07.986,-0.30918384,0.35886303,-9.7199001,-1.9604828,-0.10857408,-0.12956548
05:46:07.996,-0.35718504,0.34437156,-9.7802238,-2.1404867,-0.10986143,-0.12466892
05:46:08.006,-0.33743447,0.38091519,-9.7379227,-2.5454731,-0.13446586,-0.17770483
05:46:08.016,-0.31663382,0.34242058,-9.8053398,-3.458766,-0.1106981,-0.28685579
05:46:08.026,-0.32178652,0.35389087,-9.6960573,-4.213201,-0.090112329,-0.29621783
05:46:08.036,-0.34411597,0.32439724,-9.7573128,-5.0531893,-0.068575367,-0.38719529
05:46:08.046,-0.3535853,0.38845655,-9.7712984,-6.0335922,-0.038181614,-0.45848003
05:46:08.056,-0.34713477,0.38719827,-9.7725363,-6.8425527,-0.048533384,-0.51900196
05:46:08.066,-0.32215112,0.36350343,-9.7226677,-7.556489,-0.087122999,-0.6309613
05:46:08.076,-0.32305345,0.39054504,-9.7553911,-7.4612837,-0.13647829,-0.65301085
05:46:08.086,-0.35074499,0.49802071,-9.7671318,-6.8036284,-0.19301698,-0.74688691
05:46:08.096,-0.33553115,0.41519675,-9.7218513,-6.4280596,-0.16359448,-0.79343832
05:46:08.106,-0.34089848,0.40789402,-9.7171183,-5.9415627,-0.22078887,-0.77401155
05:46:08.116,-0.32447702,0.49488199,-9.7216825,-6.0578566,-0.15469047,-0.85324037
05:46:08.126,-0.3111338,0.50200576,-9.740591,-6.5302444,-0.063515298,-0.8616944
05:46:08.136,-0.3296217,0.49757236,-9.7233496,-6.7197847,-0.055328742,-0.89240319
05:46:08.146,-0.32848698,0.49197009,-9.7565212,-6.5504088,-0.045505609,-0.95583725
05:46:08.156,-0.32830247,0.53303975,-9.7002869,-6.0849438,-0.056026664,-0.96994901
05:46:08.166,-0.35640651,0.52824199,-9.795373,-5.7792745,-0.029372139,-0.89299268
05:46:08.176,-0.35847595,0.49412236,-9.6977615,-5.8438144,-0.063881233,-0.97148901
05:46:08.186,-0.34736696,0.51594895,-9.7151241,-4.9766617,-0.075412937,-0.89009309
05:46:08.196,-0.34902889,0.66841829,-9.7740221,-4.0281506,0.035978671,-0.92224717
05:46:08.206,-0.34093583,0.47517014,-9.715785,-3.3615692,0.080204889,-0.96617687
05:46:08.216,-0.34919885,0.5362857,-9.6862268,-3.0905292,0.06908755,-0.92577219
05:46:08.226,-0.36143607,0.58780909,-9.7732859,-3.1666634,0.12139625,-0.88006502
05:46:08.236,-0.34972113,0.57427657,-9.7407465,-2.9696989,0.19229339,-0.81323022
05:46:08.246,-0.34866038,0.48898473,-9.7008381,-2.5757985,0.24705647,-0.8145473
05:46:08.256,-0.34508178,0.55240196,-9.7696152,-2.4634838,0.2520023,-0.64824891
05:46:08.266,-0.35817203,0.48169851,-9.7220287,-2.2890067,0.32583475,-0.51614404
05:46:08.276,-0.37007633,0.60866714,-9.7387953,-1.7434492,0.26036209,-0.43479234
05:46:08.286,-0.33443767,0.59546554,-9.7371187,-1.3888019,0.24875145,-0.29235509
05:46:08.296,-0.37192234,0.56336892,-9.7029572,-0.65845394,0.19044214,-0.23847771
05:46:08.306,-0.35649103,0.66354263,-9.7293091,-0.14592975,0.22176427,-0.1800928
05:46:08.316,-0.33688396,0.58745861,-9.7736015,-0.29793578,0.20258124,-0.089826018
05:46:08.326,-0.33828777,0.55940056,-9.6992159,0.079388589,0.18787107,-0.023400463
05:46:08.336,-0.37091997,0.59579045,-9.7184534,0.18383741,0.24567536,-0.021158494
05:46:08.346,-0.35819402,0.61538643,-9.7478504,0.22464673,0.26909289,0.071426712
05:46:08.356,-0.31884137,0.60518879,-9.7601681,0.543383,0.31651422,0.18277526
05:46:08.366,-0.29000032,0.55795056,-9.6667614,0.43659693,0.36696497,0.23583418
05:46:08.376,-0.34647238,0.53085256,-9.7393293,0.69090939,0.32587337,0.33732563
05:46:08.386,-0.3189351,0.67734993,-9.7450247,1.1434662,0.39108068,0.30386561
05:46:08.396,-0.32098186,0.61263078,-9.7252569,1.3344064,0.45747495,0.38394484
05:46:08.406,-0.311304,0.57371467,-9.7947912,1.1915632,0.38587531,0.42299131
05:46:08.416,-0.34985664,0.57846761,-9.7363405,1.2632068,0.37036955,0.4425438
05:46:08.426,-0.33528844,0.57964265,-9.7950621,1.3398542,0.39586899,0.44993356
05:46:08.436,-0.34748849,0.52062553,-9.7334452,1.4972336,0.37616482,0.50455326
05:46:08.446,-0.34665775,0.5677762,-9.7569752,0.78957629,0.40554288,0.35812947
05:46:08.456,-0.32382354,0.59191,-9.7515707,0.31582817,0.36637345,0.56713033
05:46:08.466,-0.30092937,0.5453369,-9.8208857,0.27765751,0.38748384,0.58899605
05:46:08.476,-0.29279387,0.56526107,-9.6643906,0.14740343,0.34324375,0.56912065
05:46:08.486,-0.34550333,0.59399027,-9.7789135,0.7159974,0.24613595,0.60813439
05:46:08.496,-0.31014198,0.62000108,-9.7402334,1.2998229,0.30613551,0.72622037
05:46:08.506,-0.30420423,0.57097721,-9.7701607,1.1307772,0.28994173,0.69423717
05:46:08.516,-0.2949729,0.59527618,-9.7197962,1.7472931,0.31857923,0.80763561
05:46:08.526,-0.32819432,0.57557011,-9.7488718,2.9997633,0.30107415,0.87146044
05:46:08.536,-0.3461028,0.62892288,-9.7582302,3.9852247,0.36192673,0.93969351
05:46:08.546,-0.33326262,0.56606841,-9.739748,5.014739,0.39610922,0.96399671
05:46:08.556,-0.30300876,0.47300017,-9.724226,5.669323,0.41556168,1.0285553
05:46:08.566,-0.32193199,0.56935847,-9.7905226,5.7247033,0.42008054,1.1971831
05:46:08.576,-0.36422259,0.47308192,-9.8079967,6.0197878,0.43006149,1.2557509
05:46:08.586,-0.31650445,0.50737023,-9.7180519,5.9740744,0.54873753,1.4010582
05:46:08.596,-0.34846029,0.52831173,-9.758956,6.4102111,0.49099371,1.47958
05:46:08.606,-0.35648724,0.51568961,-9.7585955,6.9954,0.50398874,1.4404029
05:46:08.616,-0.33695275,0.48135644,-9.8255482,7.1899199,0.53367525,1.493095
05:46:08.626,-0.32811409,0.49234602,-9.7249479,6.9902768,0.51472592,1.5703994
05:46:08.636,-0.31792566,0.42870659,-9.8196068,6.3905282,0.56342131,1.584112
05:46:08.646,-0.30571789,0.45966017,-9.7785883,5.7506142,0.61558652,1.6887085
05:46:08.656,-0.32123712,0.46018511,-9.7865868,5.8075547,0.62423742,1.695653
05:46:08.666,-0.29353359,0.4373529,-9.7376394,6.3537598,0.57935131,1.6742791
05:46:08.676,-0.3022095,0.40283981,-9.8164778,6.7817411,0.57837254,1.7151986
05:46:08.686,-0.28098005,0.48116729,-9.7797337,7.2458687,0.60165936,1.7640247
05:46:08.696,-0.27226579,0.42296559,-9.7397833,7.9383373,0.66233289,1.7655504
05:46:08.706,-0.31104732,0.37218899,-9.7879782,8.1911497,0.6651237,1.7779844
05:46:08.716,-0.33395061,0.39439419,-9.7816734,8.1343069,0.73595595,1.7825806
05:46:08.726,-0.32637304,0.44554788,-9.7974825,8.5070934,0.7051028,1.8278414
05:46:08.736,-0.30734214,0.37641305,-9.7586956,9.6888056,0.68909162,1.7782035
05:46:08.746,-0.27190906,0.34794274,-9.7686005,11.094861,0.67946559,1.7591155
05:46:08.756,-0.30616489,0.37947831,-9.7921457,12.24282,0.67615545,1.837756
05:46:08.766,-0.32485595,0.34219384,-9.8211393,12.972074,0.66882491,1.8790445
05:46:08.776,-0.29095575,0.25919947,-9.7805223,12.808783,0.62429446,2.0018754
05:46:08.786,-0.29402775,0.29113737,-9.8102503,12.46894,0.68728012,2.0735376
05:46:08.796,-0.29844552,0.27662745,-9.7781506,12.119212,0.65277916,2.069998
05:46:08.806,-0.27735665,0.16958259,-9.8035374,10.751646,0.70121831,2.1613162
05:46:08.816,-0.29992169,0.16380447,-9.7840233,9.6620665,0.77779287,2.2681718
05:46:08.826,-0.29524982,0.19091068,-9.8073368,8.7408047,0.8189379,2.2937205
05:46:08.836,-0.30502346,0.17209269,-9.835536,7.7423592,0.78973776,2.2852948
05:46:08.846,-0.31535161,0.15932584,-9.8270283,6.7626266,0.7636534,2.2553084
05:46:08.857,-0.30948928,0.069983907,-9.822382,5.5882096,0.75996864,2.2107587
05:46:08.866,-0.32227638,0.094485864,-9.8031025,3.9967227,0.75917935,2.2138243
05:46:08.876,-0.33270177,0.1060632,-9.8501015,3.1108346,0.77065659,2.1652279
05:46:08.886,-0.32587242,0.10043755,-9.7989988,2.2462957,0.7499038,2.1418638
05:46:08.896,-0.32562265,0.067227013,-9.8436832,1.4871827,0.71859235,2.1188364
05:46:08.906,-0.32182774,0.13744009,-9.8086166,0.62068057,0.65698045,2.0064495
05:46:08.916,-0.3006584,0.13668589,-9.7877388,0.063405603,0.71478868,2.0902169
05:46:08.926,-0.30267528,0.13804595,-9.7495317,0.13994321,0.69946814,2.026948
05:46:08.936,-0.29788402,0.14531924,-9.8034334,0.41207764,0.67990023,2.0341599
05:46:08.946,-0.29516983,0.13051832,-9.7732239,0.56004584,0.70223147,2.106847
05:46:08.957,-0.28432783,0.16476119,-9.8111172,0.41884392,0.65194768,2.0954363
05:46:08.966,-0.27726117,0.19036286,-9.7737226,0.066880815,0.64590591,2.0991831
05:46:08.976,-0.28813583,0.14923397,-9.7806358,0.15580709,0.6276198,2.1521122
05:46:08.986,-0.29319307,0.17270023,-9.7494249,0.6759823,0.54232502,2.1864159
05:46:08.996,-0.28625116,0.17037767,-9.778389,0.8162868,0.56209099,2.2254963
05:46:09.006,-0.26157883,0.15557319,-9.7932768,1.1369101,0.51343304,2.226706
05:46:09.016,-0.28516114,0.14285901,-9.7534084,1.3862369,0.53339452,2.238656
05:46:09.026,-0.27239242,0.13176501,-9.7694397,1.4159589,0.59334171,2.2261398
05:46:09.036,-0.25638491,0.13630433,-9.7395544,1.0365807,0.64111269,2.2721322
05:46:09.046,-0.25594428,0.11933745,-9.7867708,1.2701217,0.6913501,2.297622
05:46:09.056,-0.27024573,0.15734084,-9.7609158,1.7421207,0.6449427,2.3073912
05:46:09.066,-0.27679741,0.15878718,-9.8002701,1.6645676,0.6474216,2.3711116
05:46:09.076,-0.25469065,0.10641585,-9.7491827,1.2712983,0.64512384,2.3130288
05:46:09.086,-0.26099041,0.10585251,-9.8075819,0.82301128,0.65714252,2.3976512
05:46:09.096,-0.27087459,0.13596281,-9.7496643,0.51885092,0.55417448,2.3400097
05:46:09.106,-0.28256911,0.1646084,-9.8218813,0.76032817,0.5894528,2.3888888
05:46:09.116,-0.26505348,0.13376738,-9.7487087,0.82949328,0.50729305,2.4457204
05:46:09.126,-0.26305875,0.13479052,-9.7876434,0.60223889,0.44176358,2.4700336
05:46:09.136,-0.27459812,0.15838504,-9.7511177,0.52458471,0.46469495,2.5114555
05:46:09.146,-0.24710277,0.18361878,-9.7675037,0.5456714,0.53437775,2.6590657
05:46:09.156,-0.2648356,0.13992664,-9.6841249,0.52373236,0.52253312,2.6449819
05:46:09.166,-0.26211238,0.11639903,-9.8063927,0.25094205,0.60523909,2.6623569
05:46:09.176,-0.2514326,0.13835853,-9.7802114,-0.55146945,0.62197953,2.6612782
05:46:09.186,-0.24714856,0.14758618,-9.7681923,-1.0987395,0.65895915,2.7486029
05:46:09.196,-0.27125901,0.12355667,-9.8019753,-1.3786429,0.62149036,2.7718754
05:46:09.206,-0.28600708,0.10132657,-9.7736712,-2.0172412,0.67802668,2.8004873
05:46:09.216,-0.29165655,0.11778942,-9.7756405,-2.5681825,0.67790294,2.8407276
05:46:09.226,-0.26769334,0.17767352,-9.7779531,-3.0502894,0.66641992,2.8538213
05:46:09.236,-0.24951634,0.18292157,-9.8143997,-2.9790902,0.62485266,2.74404
05:46:09.246,-0.24506363,0.16226314,-9.7683954,-2.6085637,0.7038269,2.8010705
05:46:09.256,-0.26904276,0.18425103,-9.7902842,-2.48663,0.62617421,2.7845876
05:46:09.266,-0.25247222,0.17869383,-9.7272854,-2.924953,0.6375463,2.782799
05:46:09.276,-0.25229573,0.20079526,-9.7940083,-3.2673409,0.69492048,2.8200252
05:46:09.286,-0.24257223,0.23036793,-9.7567244,-3.6085556,0.73341089,2.8523183
05:46:09.296,-0.2310016,0.22524625,-9.7465935,-3.4424522,0.76199931,2.7884789
05:46:09.306,-0.24452277,0.25187513,-9.7781353,-2.9289112,0.82114303,2.7881293
05:46:09.316,-0.23360422,0.21612445,-9.8308716,-2.7081697,0.88878179,2.777328
05:46:09.326,-0.21732144,0.24016811,-9.7414188,-2.5208859,0.82426864,2.7496467
05:46:09.336,-0.24181546,0.24267998,-9.8050318,-2.5610983,0.89003313,2.7731616
05:46:09.346,-0.23735166,0.18697666,-9.8137941,-3.2965214,0.90596801,2.8055108
05:46:09.356,-0.25610414,0.17029206,-9.7757711,-3.6723895,0.92613512,2.8424268
05:46:09.366,-0.23901793,0.23725662,-9.8007917,-3.9287951,0.91276652,2.8606679
05:46:09.376,-0.2271771,0.24836597,-9.7602005,-4.2631006,0.93455738,2.8736234
05:46:09.386,-0.21426968,0.24283847,-9.8092556,-4.4963012,0.91208142,2.9051533
05:46:09.396,-0.227801,0.29963213,-9.7876711,-5.2355719,0.96073788,2.9547641
05:46:09.406,-0.23462321,0.29807487,-9.8335371,-5.5974312,0.98502392,2.909791
05:46:09.416,-0.2412532,0.33019161,-9.750514,-5.0700059,0.99101114,2.9769979
05:46:09.426,-0.24817328,0.2606144,-9.8511915,-4.9581614,0.9823128,2.8779161
05:46:09.436,-0.25169653,0.26464584,-9.7828255,-5.1891842,0.99582207,2.996603
05:46:09.446,-0.21774745,0.31202307,-9.8269777,-5.2837119,0.98966414,3.0574725
05:46:09.456,-0.21887062,0.30560806,-9.8041115,-5.6076026,0.97339308,2.979871
05:46:09.466,-0.25281155,0.23785652,-9.8429489,-6.0164118,1.0323155,2.8725731
05:46:09.476,-0.24772961,0.26333568,-9.7553959,-6.9064069,1.0610551,2.8568733
05:46:09.486,-0.23594896,0.29641601,-9.8112392,-7.6666603,1.1023865,2.8460882
05:46:09.496,-0.24451551,0.28086928,-9.7920532,-7.5076871,1.093642,2.8434985
05:46:09.506,-0.23548941,0.33625036,-9.7536545,-7.3265896,1.1451538,2.8044806
05:46:09.516,-0.20556019,0.40778285,-9.78545,-7.0665507,1.1075455,2.835609
05:46:09.526,-0.24932937,0.40859035,-9.7782755,-6.5119958,1.1189128,2.7308753
05:46:09.536,-0.22189286,0.39218724,-9.8179665,-6.5264349,1.1014625,2.7685063
05:46:09.546,-0.21961853,0.4244144,-9.7602215,-5.9587736,1.1151081,2.770292
05:46:09.556,-0.22496055,0.4732891,-9.8430386,-4.9915609,1.0762963,2.7611241
05:46:09.566,-0.19891134,0.47518104,-9.7488804,-4.5932131,1.085134,2.7810533
05:46:09.576,-0.20272149,0.42492351,-9.8596067,-4.1077847,1.1126143,2.8219318
05:46:09.586,-0.24011657,0.49447155,-9.7947636,-4.0387888,1.0563923,2.8742247
05:46:09.596,-0.2418699,0.50362277,-9.8062258,-4.0326996,1.0477861,2.8791544
05:46:09.606,-0.21797891,0.47478107,-9.7951431,-3.1529784,1.071097,3.0408962
05:46:09.616,-0.2128952,0.44331503,-9.8293018,-2.4915035,1.0503893,2.9953866
05:46:09.626,-0.20320199,0.5120185,-9.7773056,-2.4885838,1.0390302,3.1179779
05:46:09.636,-0.20180927,0.50122625,-9.7886715,-2.1844325,1.00174,3.0971475
05:46:09.646,-0.16406222,0.47851261,-9.7847776,-1.6561309,1.0206046,3.0943582
05:46:09.656,-0.16538557,0.41762754,-9.7698193,-1.4890044,1.0585243,3.1436338
05:46:09.666,-0.17282835,0.54927999,-9.8113585,-1.3645129,0.98454171,3.2296288
05:46:09.676,-0.14560027,0.51732838,-9.7592573,-0.85486209,1.015164,3.2832272
05:46:09.686,-0.15171295,0.50405455,-9.7981062,-0.10521369,0.90846175,3.2946641
05:46:09.696,-0.15844157,0.51353705,-9.7825794,0.19889037,0.92284113,3.3472941
05:46:09.706,-0.17194615,0.53462887,-9.8219032,0.16185072,0.90759403,3.4312165
05:46:09.716,-0.19093142,0.52743894,-9.7526369,0.095336214,0.81033444,3.4702165
05:46:09.726,-0.18021327,0.52712542,-9.8342466,0.11592397,0.84088522,3.4044831
05:46:09.736,-0.18825513,0.5754174,-9.7926502,0.30810302,0.83872122,3.4453902
05:46:09.746,-0.17590679,0.55815965,-9.7900991,0.80391401,0.82549977,3.3892169
05:46:09.756,-0.18006572,0.48055002,-9.803834,0.52918309,0.77572429,3.295182
05:46:09.766,-0.16442174,0.47759408,-9.838995,-0.31150264,0.86220962,3.311372
05:46:09.776,-0.16714795,0.51269668,-9.7953482,-0.79433256,0.87018251,3.3137782
05:46:09.786,-0.15484223,0.47122148,-9.7920914,-1.2228115,0.85180742,3.1938057
05:46:09.796,-0.1781143,0.45274895,-9.8041477,-1.428601,0.82715708,3.2387033
05:46:09.806,-0.17108129,0.50492406,-9.7965889,-1.7519603,0.81814182,3.2693257
05:46:09.816,-0.17573504,0.52762425,-9.8136959,-2.168509,0.80392891,3.2850378
05:46:09.826,-0.16777186,0.56018203,-9.7625294,-2.1551931,0.7465179,3.2922399
05:46:09.836,-0.15985718,0.51651824,-9.7917547,-1.3717991,0.77639341,3.2762599
05:46:09.846,-0.15914716,0.53700441,-9.7973232,-1.2071161,0.74469239,3.2481978
05:46:09.856,-0.17699628,0.59398383,-9.825902,-1.2524195,0.7031551,3.2438529
05:46:09.866,-0.15834583,0.51800513,-9.7613974,-1.3366829,0.67543417,3.2219775
05:46:09.876,-0.12912659,0.50849825,-9.8423567,-1.5388652,0.66308469,3.1908185
05:46:09.886,-0.14699444,0.55968881,-9.775054,-1.5367314,0.65013945,3.140666
05:46:09.896,-0.12608239,0.51285702,-9.8098059,-1.2664374,0.70771527,3.1027167
05:46:09.906,-0.14899774,0.4889788,-9.7979536,-1.3987098,0.62852353,3.1471343
05:46:09.916,-0.15776296,0.53453201,-9.7968826,-1.1378604,0.6322993,3.1788638
05:46:09.926,-0.15946257,0.57974446,-9.7890816,-0.62337154,0.6621747,3.2320368
05:46:09.936,-0.15104982,0.62365282,-9.7722273,0.28716087,0.68073708,3.2376854
05:46:09.946,-0.1377178,0.52789938,-9.7891903,1.1758294,0.64978862,3.1733694
05:46:09.956,-0.11827944,0.55611539,-9.7669344,1.8200841,0.65842253,3.1899543
05:46:09.966,-0.14455572,0.62142903,-9.779336,2.7970688,0.72733766,3.2446463
05:46:09.976,-0.11647516,0.59563851,-9.7828856,3.6947975,0.66831076,3.2051768
05:46:09.986,-0.11469734,0.52321231,-9.8415518,4.3516688,0.58574194,3.2459426
05:46:09.996,-0.12255333,0.58278799,-9.7741747,5.1712236,0.5857569,3.3065453
05:46:10.006,-0.10729043,0.51093096,-9.815856,5.7320929,0.59298128,3.3458297
05:46:10.016,-0.10993063,0.53523576,-9.7846298,6.2224922,0.51641792,3.3989861
05:46:10.026,-0.12406841,0.5100804,-9.7979755,6.5765648,0.57529068,3.4335172
05:46:10.036,-0.12112288,0.52857983,-9.7655745,7.1385956,0.54806745,3.5272195
05:46:10.046,-0.12019986,0.46424484,-9.8275557,7.801692,0.60238117,3.5766592
05:46:10.057,-0.10972925,0.46333554,-9.7883959,7.4871392,0.64089811,3.6251514
05:46:10.066,-0.12386616,0.42624798,-9.7824078,7.8506937,0.62085253,3.7320509
05:46:10.076,-0.14313164,0.47789779,-9.7990417,8.4455042,0.59043401,3.7353179
05:46:10.086,-0.12213468,0.4286752,-9.7842236,8.6509657,0.60094321,3.8075285
05:46:10.097,-0.10130282,0.4072051,-9.8138905,9.1126299,0.60623324,3.9036884
05:46:10.106,-0.11139894,0.43801183,-9.7946138,9.0677404,0.57709306,3.880048
05:46:10.116,-0.13051973,0.44169793,-9.8293495,9.5815954,0.5228641,3.895541
05:46:10.126,-0.12115478,0.45180023,-9.7733002,10.940908,0.50926799,3.9294541
05:46:10.136,-0.11100046,0.36240086,-9.8560534,11.343081,0.53633761,3.9556782
05:46:10.146,-0.11100744,0.34263098,-9.7999735,11.320018,0.50206262,4.0019369
05:46:10.156,-0.12504964,0.32758132,-9.8774147,11.317391,0.48864883,4.0900002
05:46:10.166,-0.10176938,0.31901911,-9.7631359,11.316526,0.44458097,4.078691
05:46:10.176,-0.1164574,0.24764074,-9.8734598,11.631107,0.48405138,4.0786428
05:46:10.186,-0.0848286,0.26020998,-9.794488,11.812174,0.45738134,4.0553455
05:46:10.196,-0.099387161,0.20256358,-9.8287201,11.295637,0.50478119,4.0351601
05:46:10.206,-0.077676669,0.20837907,-9.8064241,10.334881,0.53245872,4.0968709
05:46:10.216,-0.085657313,0.11824291,-9.8482323,9.731389,0.47573981,4.0671382
05:46:10.226,-0.089066558,0.23041567,-9.8000059,9.7076769,0.46113652,4.1327624
05:46:10.236,-0.11733606,0.2051461,-9.7719393,10.288181,0.38823628,4.2021351
05:46:10.246,-0.1067109,0.1363035,-9.8413773,11.019808,0.37164128,4.2189665
05:46:10.256,-0.10034308,0.12833309,-9.7861099,11.313686,0.41499004,4.3090992
05:46:10.266,-0.098843269,0.16799811,-9.8161268,11.612007,0.35948342,4.3379993
05:46:10.276,-0.084114589,0.086009987,-9.8049307,11.706059,0.40294704,4.3402309
05:46:10.286,-0.12383205,0.037391223,-9.841238,11.490555,0.42607155,4.3830271
05:46:10.296,-0.13775069,0.059068307,-9.8020191,11.785802,0.41036063,4.332922
05:46:10.306,-0.12801382,0.018419627,-9.8619413,11.767199,0.41192386,4.2958183
05:46:10.316,-0.098217092,-0.00042186756,-9.7563505,11.686496,0.39314085,4.2660508
05:46:10.326,-0.10269272,-0.031913336,-9.890358,12.060071,0.43171108,4.1420588
05:46:10.336,-0.12244754,-0.059570514,-9.8239403,11.551928,0.35460693,4.1321568
05:46:10.346,-0.13783176,-0.044614591,-9.7767305,11.362943,0.33469978,4.0820642
05:46:10.356,-0.13298365,-0.076507121,-9.8048258,11.728634,0.2840645,4.0969429
05:46:10.366,-0.10878227,-0.065106966,-9.8351126,12.334501,0.38572249,4.060142
05:46:10.376,-0.085185736,-0.066614673,-9.7442541,13.083007,0.29307014,4.0199356
05:46:10.386,-0.10439277,-0.1540855,-9.8058996,13.327869,0.34938812,4.051908
05:46:10.396,-0.11133742,-0.17117548,-9.8539305,12.770222,0.3106828,4.0656371
05:46:10.406,-0.10282961,-0.16109256,-9.7839699,11.924088,0.31071565,4.0800757
05:46:10.416,-0.10357744,-0.1877111,-9.8474207,11.31469,0.27369106,4.1237054
05:46:10.426,-0.08786016,-0.17225021,-9.7589273,11.03622,0.24770539,4.174861
05:46:10.436,-0.079030663,-0.26133466,-9.8639107,10.477445,0.14546858,4.1242275
05:46:10.446,-0.074542291,-0.25500694,-9.7950544,9.9270887,0.21112844,4.1632767
05:46:10.456,-0.10549353,-0.27547666,-9.8380384,9.075098,0.17855598,4.2574959
05:46:10.466,-0.075459592,-0.29708767,-9.7739601,7.8993516,0.11125167,4.2557292
05:46:10.476,-0.082888886,-0.31234133,-9.8672495,7.5990396,0.11038198,4.2083106
05:46:10.486,-0.088546328,-0.28637043,-9.7701378,7.2904916,0.13756843,4.2864566
05:46:10.496,-0.08791817,-0.34330982,-9.8012171,6.4034495,0.10047442,4.2834344
05:46:10.506,-0.10390356,-0.3394168,-9.75846,6.2292171,0.097947679,4.2095203
05:46:10.516,-0.094067112,-0.36807096,-9.8100204,6.1357207,0.13886553,4.2657056
05:46:10.526,-0.083797202,-0.32416812,-9.7701607,5.1164627,0.11136211,4.2941508
05:46:10.536,-0.10443826,-0.33665162,-9.8130484,4.6615629,0.11243276,4.3074508
05:46:10.546,-0.08494319,-0.38208222,-9.759284,3.970083,0.092009358,4.2910647
05:46:10.556,-0.10014911,-0.33103585,-9.7728472,3.5595851,0.12267528,4.2996411
05:46:10.566,-0.093972437,-0.29546607,-9.7693291,3.6373608,0.077411644,4.2615738
05:46:10.576,-0.085491247,-0.35481983,-9.7601233,3.3560464,0.074230857,4.2811041
05:46:10.586,-0.092952371,-0.36943567,-9.7866411,3.1119261,0.055647291,4.3029079
05:46:10.596,-0.11637039,-0.3729631,-9.7686176,3.0624471,-0.019076727,4.3328052
05:46:10.606,-0.11078963,-0.33362269,-9.8005972,3.3221056,-0.038091239,4.3668904
05:46:10.617,-0.13676837,-0.32828188,-9.7505493,3.6381133,-0.0024987371,4.4035692
05:46:10.626,-0.098089747,-0.38410208,-9.7789307,4.0055361,-0.10394525,4.3754673
05:46:10.636,-0.11209373,-0.39681607,-9.7479963,4.1457977,-0.056143627,4.4028215
05:46:10.646,-0.10493433,-0.39460772,-9.7658005,3.545907,-0.019694768,4.4464803
05:46:10.656,-0.073028572,-0.38102916,-9.7171183,3.1846199,0.060085237,4.4130301
05:46:10.666,-0.088649757,-0.41737837,-9.7907419,3.2073884,0.028504707,4.4137821
05:46:10.676,-0.10781174,-0.36034545,-9.7473307,2.7221234,0.075223692,4.3454018
05:46:10.686,-0.1004644,-0.41419303,-9.7904644,2.1055613,0.091562197,4.2884598
05:46:10.696,-0.08927431,-0.42349732,-9.7586241,2.0427055,0.035616733,4.3123078
05:46:10.706,-0.091923773,-0.41679117,-9.8004684,1.8141757,-0.023816431,4.2203469
05:46:10.716,-0.10534808,-0.41123164,-9.7383308,2.1599848,-0.035241127,4.2462983
05:46:10.726,-0.095572665,-0.37590608,-9.7299013,3.0218086,-0.02049274,4.2531128
05:46:10.736,-0.078743629,-0.41350633,-9.7694855,3.4119525,-0.12525617,4.2057872
05:46:10.746,-0.11699762,-0.4555625,-9.796566,3.5252259,-0.088334583,4.2917366
05:46:10.756,-0.1080137,-0.39336276,-9.7356272,3.7687993,-0.096053839,4.2864237
05:46:10.766,-0.076725721,-0.38129359,-9.7552214,3.8037643,-0.10984622,4.2538295
05:46:10.776,-0.11191989,-0.44429767,-9.7970161,4.0262995,-0.069906987,4.295857
05:46:10.786,-0.096910432,-0.43889663,-9.7347984,4.0172143,-0.044006277,4.2818999
05:46:10.796,-0.054255337,-0.42645818,-9.7699947,3.8093188,-0.039554548,4.2281423
05:46:10.806,-0.06345094,-0.47381845,-9.7030678,3.4526775,-0.0075383936,4.1564775
05:46:10.816,-0.065294772,-0.51271677,-9.8138256,2.8521218,0.047110982,4.1166282
05:46:10.826,-0.063501582,-0.50354165,-9.724246,1.8060238,0.02049634,4.0862942
05:46:10.836,-0.076157652,-0.5054006,-9.7754946,1.3462303,0.055918042,4.0465817
05:46:10.846,-0.086594187,-0.54263842,-9.7670774,0.65917891,-0.03201621,4.0553417
05:46:10.856,-0.081616819,-0.53114671,-9.8282719,0.052305896,0.016446916,3.9757953
05:46:10.866,-0.075957224,-0.49770224,-9.7541485,-0.58965111,-0.076069236,3.9700384
05:46:10.876,-0.070326336,-0.53972954,-9.8027248,-1.4151933,-0.028833615,3.9994638
05:46:10.886,-0.081309631,-0.55356997,-9.7426758,-2.0085809,-0.014562847,4.0096717
05:46:10.896,-0.089500748,-0.42791665,-9.7691011,-2.2122545,0.012094546,3.8597262
05:46:10.906,-0.099131279,-0.44720829,-9.7891397,-1.9970763,0.033575553,3.8181808
05:46:10.916,-0.071268991,-0.47864923,-9.7679472,-1.8263912,0.087236948,3.7793391
05:46:10.926,-0.085448921,-0.47220805,-9.7977743,-1.8068904,0.059424862,3.6743674
05:46:10.936,-0.096724153,-0.47547072,-9.8141956,-1.9634539,0.023376295,3.6811271
05:46:10.946,-0.13093796,-0.45891166,-9.7940969,-1.1929584,0.042694263,3.7178164
05:46:10.956,-0.1140684,-0.47864187,-9.7752457,-0.71308357,-0.0089663751,3.676348
05:46:10.966,-0.11155612,-0.51684523,-9.8238325,-0.75247037,-0.064422794,3.7120349
05:46:10.976,-0.093903244,-0.43654856,-9.7643623,-0.37888288,-0.095338739,3.7123153
05:46:10.986,-0.092554055,-0.47121608,-9.7886477,0.004755218,-0.060903013,3.7069793
05:46:10.996,-0.10618638,-0.48868439,-9.7435188,-0.11205958,-0.074386887,3.6938252
05:46:11.006,-0.10243531,-0.51835358,-9.8313894,-0.8364535,-0.016677318,3.5754709
05:46:11.016,-0.085449219,-0.49177134,-9.7811365,-1.6362028,-0.02911664,3.5222225
05:46:11.026,-0.086094156,-0.49000829,-9.7973566,-2.3255444,-0.021225991,3.4861236
05:46:11.036,-0.07572601,-0.50447464,-9.7820368,-3.1007867,0.0029720184,3.4112389
05:46:11.046,-0.094530717,-0.49290717,-9.8089199,-3.891629,0.020243125,3.388118
05:46:11.056,-0.097141169,-0.45325318,-9.7958136,-4.5402455,0.093093626,3.3861489
05:46:11.066,-0.061490644,-0.47316131,-9.7785025,-5.2472048,0.077661343,3.3294373
05:46:11.076,-0.088200606,-0.4648293,-9.8067474,-5.936883,0.10547893,3.3578236
05:46:11.086,-0.08412879,-0.39244154,-9.7599373,-6.1849141,0.17475139,3.3183677
05:46:11.096,-0.082533844,-0.41073981,-9.8004494,-6.2246094,0.19659825,3.2832592
05:46:11.106,-0.059168898,-0.3928864,-9.7488413,-6.1323071,0.23482302,3.33217
05:46:11.116,-0.062830433,-0.44765976,-9.8304682,-6.0641904,0.28037989,3.3668807
05:46:11.126,-0.082333051,-0.37412596,-9.7762461,-6.153378,0.29767081,3.3823659
05:46:11.136,-0.081606016,-0.35675198,-9.8359661,-5.9783583,0.27073869,3.4106755
05:46:11.146,-0.093694896,-0.38811517,-9.7395096,-5.5575628,0.2466796,3.4940982
05:46:11.156,-0.10288113,-0.4145835,-9.845211,-5.4380326,0.20155582,3.5053487
05:46:11.166,-0.090905659,-0.30878565,-9.7787037,-5.2688203,0.21076225,3.5262191
05:46:11.176,-0.11414291,-0.37150273,-9.8312845,-5.1041107,0.25857893,3.676383
05:46:11.186,-0.1244892,-0.30529162,-9.793376,-5.2273059,0.16989632,3.6864538
05:46:11.196,-0.11231281,-0.27364048,-9.7942438,-4.6131582,0.15244213,3.6364477
05:46:11.206,-0.12863204,-0.27305514,-9.8295717,-3.8834779,0.19937934,3.6468279
05:46:11.216,-0.12162539,-0.26820591,-9.771636,-3.5439754,0.16570556,3.6343062
05:46:11.226,-0.098741077,-0.28169993,-9.8023157,-2.9415901,0.16056506,3.6180079
05:46:11.236,-0.10999708,-0.28073081,-9.7796659,-1.9130868,0.18763639,3.580904
05:46:11.246,-0.11138028,-0.27237719,-9.8410721,-1.5107709,0.1820862,3.4950449
05:46:11.256,-0.092000648,-0.3573761,-9.7491722,-1.6512076,0.12213485,3.4549687
05:46:11.266,-0.10638771,-0.35679325,-9.8374109,-1.8952242,0.11506532,3.5010836
05:46:11.276,-0.10548161,-0.29613978,-9.7472439,-2.2635539,0.13378888,3.5313909
05:46:11.286,-0.08412306,-0.26859328,-9.8379736,-2.3038061,0.12459359,3.4683909
05:46:11.296,-0.073856719,-0.29033381,-9.777298,-2.2901444,0.053753044,3.4841158
05:46:11.306,-0.073536128,-0.26433632,-9.8398867,-2.3885539,0.071788147,3.4651806
05:46:11.316,-0.09692362,-0.23776528,-9.749855,-2.2710996,0.0061209803,3.5129986
05:46:11.326,-0.081447743,-0.23373573,-9.8064814,-1.7757664,0.038580313,3.5071259
05:46:11.336,-0.1005751,-0.27700469,-9.7338562,-1.5238674,0.042259481,3.5005715
05:46:11.346,-0.097770527,-0.27036378,-9.8291931,-1.2743998,0.045294076,3.5494945
05:46:11.356,-0.10103704,-0.25470889,-9.799264,-1.5256932,0.00059145998,3.5814989
05:46:11.367,-0.066036016,-0.26429975,-9.7664528,-0.99988657,0.056887049,3.5354939
05:46:11.376,-0.080113932,-0.27706525,-9.7995644,-0.36819455,-0.0610741,3.5669355
05:46:11.386,-0.12617564,-0.26243362,-9.7731895,-0.31998569,-0.041776337,3.5862768
05:46:11.396,-0.077025495,-0.26635998,-9.8037548,-0.093804277,-0.058756541,3.5675614
05:46:11.406,-0.1096248,-0.26878443,-9.7333689,-0.37681633,-0.03816653,3.6021559
05:46:11.416,-0.094791345,-0.28607672,-9.8217134,-0.4183856,-0.067448556,3.5957756
05:46:11.426,-0.084356926,-0.24158573,-9.7469282,0.33748692,-0.060253505,3.6168284
05:46:11.436,-0.12037526,-0.20688786,-9.7948666,0.70613199,-0.14197658,3.6268687
05:46:11.446,-0.10468109,-0.22769691,-9.7191401,0.86596632,-0.1747634,3.6331363
05:46:11.456,-0.1176303,-0.29158446,-9.821372,1.255638,-0.14860548,3.6956673
05:46:11.466,-0.12425253,-0.21766512,-9.714817,0.88746852,-0.12509356,3.6605995
05:46:11.476,-0.095247038,-0.21892206,-9.7728758,1.3668423,-0.048177794,3.6275027
05:46:11.486,-0.11290362,-0.26429212,-9.7709932,1.9076087,-0.032282732,3.6415889
05:46:11.496,-0.081208922,-0.29067832,-9.7767811,1.8753761,-0.035564579,3.5735011
05:46:11.506,-0.059115637,-0.25907439,-9.8021555,1.4004917,-0.052660495,3.5410519
05:46:11.516,-0.092877634,-0.32051945,-9.7694864,1.0541387,-0.039577834,3.5240808
05:46:11.526,-0.10312146,-0.31033409,-9.7605362,0.53018123,-0.07634978,3.4142418
05:46:11.536,-0.086434737,-0.27361527,-9.7816458,0.12437358,-0.024380039,3.3917465
05:46:11.546,-0.11135934,-0.29796028,-9.7877579,-0.64989287,-0.021353969,3.3444643
05:46:11.556,-0.095403373,-0.31057662,-9.7445297,-1.5482843,-0.034463014,3.2952797
05:46:11.566,-0.086565033,-0.25854585,-9.8355598,-2.4713039,-0.085388839,3.1787179
05:46:11.576,-0.095227964,-0.26678771,-9.7574558,-2.632731,-0.089036919,3.0496423
05:46:11.586,-0.080599785,-0.25856239,-9.7840872,-2.6312602,-0.13550162,2.9161441
05:46:11.596,-0.082421072,-0.2616047,-9.7622032,-3.503737,-0.13475922,2.9881573
05:46:11.606,-0.10422418,-0.30250734,-9.8088789,-4.3856301,-0.11227222,2.9979596
05:46:11.616,-0.098812602,-0.22672226,-9.7539682,-4.5972843,-0.13052493,3.0627477
05:46:11.626,-0.097413845,-0.17373975,-9.7666674,-4.5623927,-0.14845367,3.0070934
05:46:11.636,-0.073816046,-0.23565395,-9.7389078,-4.3954916,-0.12445829,2.9580607
05:46:11.646,-0.10070618,-0.23442937,-9.796545,-4.4684262,-0.12930042,2.8993609
05:46:11.656,-0.086486124,-0.16487819,-9.7527847,-4.3639231,-0.13817589,2.8421421
05:46:11.666,-0.10625847,-0.21598542,-9.7812805,-4.4312053,-0.089996204,2.8261058
05:46:11.676,-0.079314761,-0.25331175,-9.7757311,-4.6177392,-0.11262358,2.8736711
05:46:11.686,-0.11065428,-0.2423767,-9.746089,-4.6295567,-0.08679308,2.7978833
05:46:11.696,-0.082309954,-0.16593969,-9.7600851,-4.5883384,-0.10943715,2.7633872
05:46:11.706,-0.093269616,-0.20175886,-9.7333031,-4.4056873,-0.11366983,2.7481484
05:46:11.716,-0.10257645,-0.22815284,-9.771718,-4.7967825,-0.047634702,2.7003736
05:46:11.726,-0.10886241,-0.17556126,-9.7320747,-5.0902429,-0.021003108,2.6846976
05:46:11.736,-0.11057384,-0.11331573,-9.8095732,-4.7023158,-0.018706681,2.6966732
05:46:11.746,-0.079138905,-0.15163313,-9.7178965,-5.0073929,-0.032877784,2.6208391
05:46:11.756,-0.10661747,-0.14818472,-9.802166,-5.1089311,-0.024053425,2.5866778
05:46:11.766,-0.098955944,-0.074474707,-9.7410307,-4.4243054,-0.058314323,2.5729184
05:46:11.776,-0.10121968,-0.092081927,-9.8169451,-4.3443093,-0.041406475,2.6283407
05:46:11.786,-0.096223161,-0.1006543,-9.716403,-3.7436893,-0.13313739,2.6390407
05:46:11.796,-0.09083689,-0.1104509,-9.783494,-2.9918993,-0.10594333,2.689429
05:46:11.806,-0.095683634,-0.058626756,-9.7481413,-2.7772558,-0.048197176,2.7784359
05:46:11.816,-0.12947473,-0.06433133,-9.7549057,-2.1001613,-0.064273164,2.7913716
05:46:11.826,-0.10724394,-0.10677353,-9.7665768,-2.0795605,-0.053418297,2.8383784
05:46:11.836,-0.10923832,-0.14804602,-9.7891731,-2.6074772,0.026799969,2.8402967
05:46:11.846,-0.090573147,-0.076501437,-9.7828951,-3.1760211,-0.00089169753,2.7681599
05:46:11.856,-0.088151731,-0.09650512,-9.7534266,-3.4401457,0.021165393,2.7402828
05:46:11.866,-0.10538706,-0.12848052,-9.8005638,-3.5338531,0.096376047,2.7212694
05:46:11.876,-0.089680366,-0.066050634,-9.7390976,-3.746021,0.062690884,2.6291945
05:46:11.886,-0.092239261,-0.13969211,-9.8026609,-4.4645619,0.071930483,2.5116491
05:46:11.896,-0.072829545,0.019403826,-9.741107,-4.7921262,0.030569043,2.4878535
05:46:11.906,-0.087347381,-0.074990146,-9.801899,-4.599607,0.021734769,2.2983961
05:46:11.916,-0.10395545,-0.042215727,-9.7293882,-3.9989612,0.01256768,2.2253516
05:46:11.926,-0.12282305,-0.01112788,-9.7679033,-3.18943,0.022405468,2.2053115
05:46:11.936,-0.1043451,0.040386185,-9.7560024,-3.5440288,-0.042202365,2.165448
05:46:11.946,-0.10103165,-0.051117711,-9.8070745,-3.2368753,0.012488176,2.1713006
05:46:11.956,-0.091499209,0.037786152,-9.7016964,-2.9561956,0.0031229621,2.0926266
05:46:11.966,-0.077064589,0.0514578,-9.7525482,-2.1981297,-0.0042230189,2.1061578
05:46:11.976,-0.09519884,0.00010435591,-9.7572689,-1.7961841,-0.031564232,2.1128857
05:46:11.986,-0.087405533,0.016292877,-9.7417574,-1.4614491,0.083826281,2.0595648
05:46:11.996,-0.06257771,0.0085560028,-9.7631721,-1.7280915,0.054040316,2.0541098
05:46:12.006,-0.095791526,0.0053481967,-9.7763319,-1.5555239,0.071739718,2.1176803
05:46:12.016,-0.10647364,-0.077861667,-9.7961359,-1.6965798,0.044062827,2.0698411
05:46:12.026,-0.096786223,0.015772723,-9.7390156,-1.387889,0.035505932,2.0758853
05:46:12.036,-0.10337415,0.031018429,-9.7958241,-0.73188418,0.036649577,2.1471784
05:46:12.046,-0.10324763,-0.025307,-9.756876,-0.60630095,-0.032126345,2.1178195
05:46:12.056,-0.10077854,-0.0066238209,-9.8357468,-0.68104994,-0.011544748,2.1494396
05:46:12.066,-0.093493141,0.064680941,-9.7451439,-0.94596243,-0.042511873,2.1573334
05:46:12.076,-0.085521199,0.010263856,-9.8215933,-1.4075544,-0.020431532,2.1349471
05:46:12.086,-0.079228096,-0.036076337,-9.7438812,-2.1373589,-0.034756694,2.0938921
05:46:12.096,-0.085654572,-0.0028684861,-9.7980881,-2.251611,-0.025739234,2.0687072
05:46:12.106,-0.073729679,0.0030099144,-9.7716484,-2.082598,-0.048623566,2.012948
05:46:12.116,-0.058627892,-0.001928487,-9.7954426,-2.608253,0.043642256,1.9378591
05:46:12.126,-0.086810663,-0.065244511,-9.7277737,-3.6602845,0.07559523,1.8423585
05:46:12.136,-0.084645152,0.040407933,-9.8017807,-4.0871468,0.02222411,1.7795287
05:46:12.146,-0.08956065,0.033725642,-9.7885151,-4.0946288,0.086993858,1.7335427
05:46:12.156,-0.076042004,-0.0016335793,-9.7502956,-4.2827692,0.063794442,1.6810275
05:46:12.166,-0.089979157,-0.020955093,-9.7610292,-4.2061362,0.059172884,1.700065
05:46:12.176,-0.074168243,0.071992762,-9.7509851,-4.5378113,0.044635028,1.6864182
05:46:12.186,-0.058456384,0.059232373,-9.8017035,-4.883462,0.10232206,1.6393764
05:46:12.196,-0.087191947,0.11284325,-9.7522774,-4.7446542,0.095883541,1.6704592
05:46:12.206,-0.13077767,0.071389429,-9.7791071,-4.0258636,0.10979686,1.6004251
05:46:12.216,-0.11929742,0.1032737,-9.7498331,-3.1459191,0.14046516,1.5767481
05:46:12.226,-0.1001951,0.14322759,-9.8326616,-2.1685009,0.11308711,1.6239983
05:46:12.236,-0.09157303,0.090688728,-9.7872772,-2.2813871,0.058300983,1.6861732
05:46:12.246,-0.1330864,0.069881238,-9.8086195,-2.527262,0.046766929,1.6925378
05:46:12.256,-0.14044133,0.16031843,-9.7814035,-2.4521165,0.028809566,1.7195052
05:46:12.266,-0.12049948,0.10945901,-9.7990093,-2.3651161,0.017251372,1.7186115
05:46:12.276,-0.079562314,0.12416641,-9.8293123,-2.4393415,-0.012580805,1.6514292
05:46:12.286,-0.092045203,0.078173548,-9.7824764,-2.6374602,0.036346465,1.5876242
05:46:12.296,-0.090804525,0.132594,-9.8069725,-3.0987396,0.10946074,1.5931749
05:46:12.306,-0.095982827,0.15257622,-9.8030615,-3.8668621,0.10025848,1.4521025
05:46:12.316,-0.081363775,-0.013671769,-9.8069744,-4.9871893,0.19158024,1.3477136
05:46:12.326,-0.070249602,0.17051598,-9.7621098,-5.9517293,0.19770643,1.2525721
05:46:12.336,-0.049299251,0.13661829,-9.80229,-6.0008626,0.20156126,1.242036
05:46:12.346,-0.059811369,0.14195591,-9.7590313,-5.5693345,0.23964165,1.1564518
05:46:12.356,-0.087020136,0.10896033,-9.7704601,-4.7856426,0.26766551,1.122643
05:46:12.366,-0.085269541,0.16131109,-9.7666931,-4.4464746,0.2150929,1.1109334
05:46:12.376,-0.098980419,0.13077158,-9.8762703,-4.8281493,0.26099518,1.0974364
05:46:12.386,-0.087916143,0.16206326,-9.7822275,-5.2054429,0.21405189,1.1393389
05:46:12.396,-0.10612111,0.18219383,-9.815403,-5.0549903,0.19904652,1.1122972
05:46:12.406,-0.10189904,0.18594339,-9.8314247,-4.8617663,0.14988922,1.1251787
05:46:12.416,-0.12036092,0.16234525,-9.8020887,-5.226706,0.18676756,1.1949788
05:46:12.426,-0.093045019,0.17305459,-9.7478552,-5.990427,0.1839142,1.2523295
05:46:12.436,-0.11507878,0.16644603,-9.8160925,-6.9346495,0.23036589,1.2444226
05:46:12.446,-0.093220845,0.26739979,-9.8042126,-6.7783628,0.18939064,1.2327918
05:46:12.456,-0.063939415,0.22515067,-9.7465019,-6.4028511,0.25773388,1.2239386
05:46:12.466,-0.084678724,0.18670727,-9.7853947,-6.524786,0.26469028,1.1577963
05:46:12.476,-0.1045178,0.25447372,-9.7590485,-6.3015499,0.3304821,1.0965471
05:46:12.486,-0.080105498,0.29171595,-9.8243809,-5.8350825,0.39960319,1.0688002
05:46:12.496,-0.097805463,0.20220287,-9.7728739,-5.4936757,0.36833987,1.0744513
05:46:12.506,-0.11942641,0.25268358,-9.7977409,-5.4401627,0.31812516,1.0298367
05:46:12.516,-0.14374983,0.30099314,-9.7898321,-4.8873591,0.28365993,0.97973633
05:46:12.526,-0.12579215,0.35173815,-9.8154793,-4.0498514,0.29486889,1.0342025
05:46:12.536,-0.11484983,0.28102836,-9.7398596,-3.3297229,0.23511256,0.98011285
05:46:12.546,-0.14263771,0.31185868,-9.8122578,-2.340996,0.20042382,0.96568567
05:46:12.556,-0.12624267,0.35106432,-9.7769136,-0.96132934,0.1531837,1.0081568
05:46:12.566,-0.11124447,0.32502347,-9.7943497,0.53303128,0.093419217,1.009388
05:46:12.576,-0.10273585,0.26842722,-9.7685709,1.7697676,-0.0065885819,0.99842364
05:46:12.586,-0.11917274,0.28934556,-9.802866,2.307915,-0.02682564,0.98953348
05:46:12.596,-0.1160835,0.26312745,-9.7846231,1.8175089,-0.085901394,1.0074749
05:46:12.606,-0.097319327,0.28797722,-9.7631578,0.95998484,-0.13560338,0.91218776
05:46:12.616,-0.056664843,0.24048623,-9.7318907,0.35055596,-0.018506251,0.815516
05:46:12.626,-0.083408244,0.26499626,-9.7524662,0.032972682,-0.021041797,0.73070556
05:46:12.636,-0.11368746,0.28486338,-9.8093901,-0.81476867,0.028329102,0.68603045
05:46:12.646,-0.092501156,0.26420707,-9.7308426,-1.5056616,0.047257017,0.64168847
05:46:12.656,-0.13262168,0.20155257,-9.8169651,-1.7730933,0.0036595471,0.57486975
05:46:12.666,-0.10547472,0.26590061,-9.7768869,-2.1863999,-0.10100607,0.56028467
05:46:12.676,-0.12776226,0.17884052,-9.8207951,-2.7892361,-0.17687023,0.69439203
05:46:12.686,-0.10898428,0.25313136,-9.7507458,-3.8130374,-0.19486937,0.7485829
05:46:12.696,-0.10160435,0.34384891,-9.7291746,-3.9053519,-0.25440022,0.83389586
05:46:12.706,-0.11886032,0.32595387,-9.7903614,-3.821578,-0.26533416,0.82502478
05:46:12.716,-0.12981176,0.31365672,-9.723484,-3.8058734,-0.18252507,0.83636957
05:46:12.726,-0.09305843,0.33441433,-9.7058897,-3.6600251,-0.22722812,0.77667952
05:46:12.736,-0.12736972,0.40422133,-9.7726498,-3.8146276,-0.3034834,0.76928723
05:46:12.746,-0.1296261,0.41370684,-9.782733,-3.261452,-0.33478183,0.7918849
05:46:12.756,-0.10437905,0.33619782,-9.6827793,-1.7788934,-0.31788674,0.73578978
05:46:12.766,-0.1081049,0.36361393,-9.6968231,-0.66452992,-0.45396373,0.70740014
05:46:12.776,-0.098564826,0.36449882,-9.7640429,-0.50381398,-0.46089169,0.67542851
05:46:12.786,-0.087050326,0.30716333,-9.7773743,-0.77897745,-0.39336836,0.68934977
05:46:12.796,-0.10198399,0.31804615,-9.6631031,-1.4108461,-0.44869393,0.67013061
05:46:12.806,-0.1306369,0.28144205,-9.7522259,-1.6901984,-0.45360845,0.64164376
05:46:12.816,-0.10958356,0.30249533,-9.7395163,-2.0375135,-0.42289817,0.70097917
05:46:12.826,-0.096289456,0.3396751,-9.7748165,-2.7982213,-0.49097866,0.68200719
05:46:12.836,-0.088453427,0.35070774,-9.6733713,-3.2827258,-0.5297423,0.67556727
05:46:12.846,-0.13965975,0.31266579,-9.765748,-3.362045,-0.53195328,0.67006469
05:46:12.856,-0.13890307,0.38520548,-9.7040634,-3.3626688,-0.58810997,0.57625806
05:46:12.866,-0.13865188,0.36591348,-9.7765408,-3.6023114,-0.64880461,0.61080098
05:46:12.876,-0.1200363,0.39849001,-9.6879139,-3.8765109,-0.73263901,0.60455978
05:46:12.886,-0.10775622,0.37620372,-9.7178841,-3.2545207,-0.6886946,0.63649422
05:46:12.896,-0.079892553,0.435022,-9.728652,-2.9925809,-0.69034022,0.69161981
05:46:12.906,-0.090150498,0.42969388,-9.6975403,-2.4745443,-0.68669164,0.73462349
05:46:12.916,-0.076123297,0.39642894,-9.6512442,-2.0195642,-0.6582728,0.79824847
05:46:12.926,-0.097970329,0.4071216,-9.6894007,-1.7010697,-0.61535329,0.85055137
05:46:12.936,-0.092589296,0.4686797,-9.7843628,-1.3191043,-0.62339658,0.83585638
05:46:12.946,-0.092541963,0.40625203,-9.6924295,-0.69736421,-0.57378387,0.87490475
05:46:12.956,-0.099660605,0.35338253,-9.7577162,-0.48176527,-0.66075915,0.80619484
05:46:12.966,-0.10449155,0.45217806,-9.7203217,-0.77284086,-0.63297963,0.82410204
05:46:12.976,-0.08079987,0.39924756,-9.78092,-1.3260739,-0.54923159,0.78399682
05:46:12.986,-0.070518531,0.35043535,-9.7225771,-1.846051,-0.58355701,0.75585622
05:46:12.996,-0.093072809,0.37716758,-9.7357635,-2.161041,-0.56989205,0.65783072
05:46:13.006,-0.11578748,0.4105559,-9.7737064,-2.6662142,-0.59625143,0.63729805
05:46:13.016,-0.12362994,0.38974398,-9.7664776,-3.0108883,-0.55559057,0.55123764
05:46:13.026,-0.10963047,0.37132224,-9.6971884,-3.6374621,-0.61736941,0.44374442
05:46:13.036,-0.13241015,0.40522525,-9.768115,-4.4259562,-0.56606811,0.39016917
05:46:13.046,-0.12243959,0.49213582,-9.7265377,-4.4373693,-0.50367606,0.30043808
05:46:13.056,-0.12691388,0.46022111,-9.7142868,-3.7462029,-0.41337785,0.28439602
05:46:13.066,-0.1246572,0.45410204,-9.6864204,-3.416877,-0.45679179,0.20529301
05:46:13.076,-0.12286393,0.45366162,-9.736187,-3.2852454,-0.36389279,0.1669748
05:46:13.086,-0.097475082,0.43868607,-9.7443056,-3.240169,-0.35282162,0.22717659
05:46:13.096,-0.1210781,0.47067106,-9.7191133,-3.064023,-0.2860947,0.31576303
05:46:13.106,-0.10957646,0.45730752,-9.7166214,-2.7860658,-0.32900482,0.31190571
05:46:13.116,-0.11773983,0.50587636,-9.763649,-2.6664762,-0.22567697,0.39218104
05:46:13.126,-0.12470685,0.54425269,-9.7910109,-2.4729512,-0.25579149,0.33265933
05:46:13.136,-0.12431579,0.45982608,-9.7255592,-2.4273186,-0.26086292,0.33633271
05:46:13.146,-0.14271975,0.42548144,-9.8186207,-2.5134444,-0.24770454,0.31137073
05:46:13.156,-0.13054644,0.5775001,-9.7377901,-1.890753,-0.256414,0.27008796
05:46:13.166,-0.11925723,0.49067488,-9.7884035,-0.77436376,-0.22697936,0.2439093
05:46:13.176,-0.11189389,0.45198366,-9.7172346,0.27805015,-0.23973219,0.26865941
05:46:13.186,-0.14628182,0.52841914,-9.7653828,0.95700496,-0.24288365,0.19509874
05:46:13.196,-0.093956932,0.56318867,-9.7694178,2.1001871,-0.26180738,0.2150065
05:46:13.206,-0.089012541,0.57020217,-9.7700682,3.1197186,-0.23085754,0.13488433
05:46:13.216,-0.097602569,0.51177955,-9.7220907,3.219656,-0.30747491,0.072915599
05:46:13.226,-0.11549466,0.54994929,-9.802557,3.6079779,-0.3521913,0.041830387
05:46:13.236,-0.11592293,0.56287926,-9.808116,4.3704047,-0.30541906,0.095324516
05:46:13.246,-0.12125828,0.43929383,-9.7353172,4.7017102,-0.30301428,0.057381492
05:46:13.256,-0.12934259,0.4251318,-9.7798309,4.6000161,-0.26249194,0.082595117
05:46:13.266,-0.14127828,0.49923402,-9.7939062,4.5692511,-0.2945863,0.033186968
05:46:13.276,-0.12772186,0.43295985,-9.786622,4.9779773,-0.2781944,0.0087891109
05:46:13.286,-0.12259348,0.44772243,-9.7279186,5.6150665,-0.30555499,0.057553846
05:46:13.296,-0.13965261,0.39028594,-9.7845497,5.9233885,-0.30173987,0.066760674
05:46:13.306,-0.13928717,0.44032341,-9.7546129,5.7878394,-0.25364125,0.19030227
05:46:13.316,-0.14110734,0.42908332,-9.7949963,5.6144352,-0.26773503,0.17607716
05:46:13.326,-0.1374556,0.4528805,-9.7332087,5.9500537,-0.33952472,0.11662236
05:46:13.336,-0.17757842,0.42893827,-9.8259315,6.3126292,-0.30442506,0.12416951
05:46:13.346,-0.13291799,0.40443128,-9.7872896,6.5733318,-0.42254391,0.17917448
05:46:13.356,-0.13318048,0.36375725,-9.7971468,6.5662971,-0.46155515,0.15750025
05:46:13.366,-0.14220783,0.40649068,-9.7721491,6.2345605,-0.47170722,0.23624921
05:46:13.376,-0.16877122,0.35773963,-9.7899179,5.9054337,-0.52833265,0.29246506
05:46:13.386,-0.15257399,0.37114882,-9.8094044,5.3678083,-0.50514752,0.28435194
05:46:13.396,-0.14203502,0.33464304,-9.7663765,4.9238729,-0.55470634,0.19604529
05:46:13.406,-0.13876724,0.32065228,-9.7628822,4.7706194,-0.50617707,0.26514998
05:46:13.416,-0.15989159,0.2860271,-9.8022232,4.1243434,-0.5630095,0.29628548
05:46:13.426,-0.16122767,0.31413525,-9.8143969,3.2872577,-0.63137519,0.30826673
05:46:13.436,-0.11417545,0.30084321,-9.707613,3.1677756,-0.68191344,0.25849465
05:46:13.446,-0.16499478,0.27950433,-9.8246174,2.8334668,-0.68832332,0.30804715
05:46:13.456,-0.18493383,0.32562876,-9.7716856,2.6870601,-0.69371092,0.22463372
05:46:13.466,-0.17051907,0.27043155,-9.7804966,3.3064785,-0.71651769,0.26084587
05:46:13.476,-0.15067421,0.24931407,-9.7182579,3.1804118,-0.70416611,0.28573999
05:46:13.486,-0.15539044,0.25220492,-9.7987394,2.9483728,-0.69346142,0.23803492
05:46:13.496,-0.14454713,0.27205485,-9.7688847,2.705776,-0.67201483,0.21735018
05:46:13.506,-0.15197866,0.26177025,-9.7649937,2.3468292,-0.67079693,0.20198351
05:46:13.516,-0.17234749,0.28122401,-9.7405901,2.6245301,-0.80264968,0.16447677
05:46:13.526,-0.2021319,0.22847976,-9.8233261,3.0530899,-0.78646517,0.15016623
05:46:13.536,-0.17344601,0.25668657,-9.7760878,2.1929803,-0.76497442,0.15545197
05:46:13.546,-0.13466826,0.21051209,-9.7718496,0.90551847,-0.80261457,0.1451624
05:46:13.556,-0.18352628,0.22834627,-9.8093777,0.50265449,-0.89073312,0.14946239
05:46:13.566,-0.16697122,0.2619718,-9.7627096,0.93981701,-0.85784966,0.12925905
05:46:13.576,-0.16627067,0.22615421,-9.8077068,1.0030929,-0.88076156,0.093817264
05:46:13.586,-0.16314517,0.16191716,-9.7698555,0.32733005,-0.96784896,0.020652609
05:46:13.596,-0.15504216,0.14484148,-9.7896662,-0.032485064,-0.892335,0.023450559
05:46:13.606,-0.18614113,0.2307317,-9.7197981,0.026962092,-0.90524566,0.062605701
05:46:13.616,-0.20991175,0.19522804,-9.8153877,0.1856811,-0.87870491,0.055097222
05:46:13.626,-0.16549215,0.19504869,-9.7201405,0.13825271,-0.88207436,-0.024943186
05:46:13.636,-0.16215195,0.19382107,-9.7951393,0.044481665,-0.93760669,0.074011534
05:46:13.646,-0.17342825,0.19767371,-9.7585926,-0.21425979,-0.93568778,0.037833832
05:46:13.656,-0.15788794,0.21535826,-9.7931881,-0.47563455,-0.90176713,0.15322515
05:46:13.666,-0.17419612,0.20803437,-9.7143879,-0.60169065,-0.94809687,0.21992706
05:46:13.676,-0.19443378,0.2460635,-9.7703743,-0.40065992,-0.95058149,0.26417157
05:46:13.686,-0.1642673,0.23356022,-9.8245878,-0.42790291,-0.95111734,0.25305182
05:46:13.696,-0.1512237,0.22518854,-9.8016119,-0.951298,-0.98891217,0.33036759
05:46:13.706,-0.17364354,0.21812332,-9.7459745,-1.1805165,-1.0393826,0.33611596
05:46:13.716,-0.19666204,0.19604899,-9.7817907,-1.0688602,-0.99452454,0.33556685
05:46:13.726,-0.19192381,0.25170025,-9.778224,-1.5086253,-1.0241218,0.25908303
05:46:13.736,-0.17114875,0.18460478,-9.7657013,-2.2676609,-0.94135177,0.23046035
05:46:13.746,-0.18700294,0.028109021,-9.7964668,-3.3713837,-0.91928756,0.19141367
05:46:13.756,-0.18962403,0.22700168,-9.7537127,-4.9038091,-0.95519477,0.05064407
05:46:13.766,-0.18734099,0.21393813,-9.8073053,-6.4635267,-0.88123894,0.099016748
05:46:13.776,-0.21096417,0.15808603,-9.7352591,-7.3844914,-0.8611517,0.1133466
05:46:13.786,-0.24267763,0.18881761,-9.7688932,-7.6586795,-0.84487855,0.093569793
05:46:13.796,-0.2075261,0.216694,-9.7216587,-7.6084242,-0.82027352,0.0077939881
05:46:13.806,-0.2112546,0.29875779,-9.7991114,-7.0698724,-0.79694939,0.10055645
05:46:13.817,-0.17446119,0.24410622,-9.6988182,-6.8867583,-0.86769682,0.015991492
05:46:13.826,-0.20390566,0.26752144,-9.7287054,-6.0255408,-0.84404737,0.079569958
05:46:13.836,-0.21212742,0.26976377,-9.7472296,-5.5058784,-0.85698587,0.0034165846
05:46:13.846,-0.20896176,0.3769803,-9.8082657,-5.5293832,-0.79058373,0.13285552
05:46:13.856,-0.19365802,0.28705508,-9.7059574,-5.0706677,-0.85833764,0.087105334
05:46:13.866,-0.2232908,0.31258172,-9.7099924,-4.3396063,-0.79036075,0.14125632
05:46:13.876,-0.2033869,0.38447326,-9.7861404,-3.890512,-0.81685174,0.21410181
05:46:13.886,-0.22227256,0.42743677,-9.6868839,-3.4177628,-0.77405554,0.21543202
05:46:13.896,-0.21209039,0.25210735,-9.7442827,-3.0980415,-0.79730535,0.29264584
05:46:13.906,-0.20533998,0.34292984,-9.7003345,-2.3467698,-0.80071449,0.48175597
05:46:13.916,-0.21445842,0.32868689,-9.7740431,-1.2821765,-0.80332035,0.55162662
05:46:13.926,-0.2243948,0.39479887,-9.6825991,-0.50154668,-0.86129749,0.7135269
05:46:13.936,-0.25400993,0.29930359,-9.82094,0.18151647,-0.88541317,0.84158927
05:46:13.946,-0.22531714,0.37568992,-9.7504358,0.37815705,-0.96020085,0.97402173
05:46:13.956,-0.21202232,0.39225993,-9.7652092,0.25568315,-0.95706391,1.1192342
05:46:13.966,-0.18378301,0.39074415,-9.7048912,0.55730063,-1.0046589,1.2827681
05:46:13.976,-0.20276166,0.37996718,-9.7464409,1.3916119,-0.95670444,1.2712582
05:46:13.986,-0.20654018,0.39386684,-9.7002535,1.8671441,-0.94518399,1.3548777
05:46:13.996,-0.20856769,0.31597736,-9.7038918,2.0287533,-0.87513775,1.4201784
05:46:14.006,-0.22906128,0.34520563,-9.7456264,1.1598245,-0.92122298,1.4470565
05:46:14.016,-0.248273,0.34250692,-9.7326202,0.43240157,-0.91811287,1.5140059
05:46:14.026,-0.23848049,0.40093613,-9.7723141,-0.21292956,-0.91996098,1.5087446
05:46:14.036,-0.24334717,0.40360489,-9.7126522,-0.39436984,-0.92810726,1.5894798
05:46:14.046,-0.25305799,0.34735042,-9.7582693,0.11562798,-0.95640165,1.5848721
05:46:14.056,-0.24912381,0.3927182,-9.6997948,0.7203806,-1.0041761,1.6662338
05:46:14.066,-0.21681499,0.3984938,-9.7780056,0.94746959,-0.93240345,1.7011498
05:46:14.076,-0.24512231,0.38799858,-9.6847591,1.6307746,-1.0028436,1.6865366
05:46:14.086,-0.24517539,0.33796123,-9.7918921,1.4461567,-1.0016725,1.657619
05:46:14.097,-0.22599939,0.41058412,-9.7378368,0.69373816,-0.94141132,1.7179024
05:46:14.106,-0.25414541,0.37730125,-9.7368946,1.0594579,-0.95087218,1.7472991
05:46:14.116,-0.22874488,0.33903608,-9.6728916,1.0839159,-0.91043627,1.8418213
05:46:14.126,-0.25478119,0.40479857,-9.7578688,1.397934,-0.87176239,1.9643524
05:46:14.136,-0.25662285,0.45383549,-9.7166786,1.7993376,-0.88874149,2.0482175
05:46:14.146,-0.24183288,0.32168835,-9.7191076,1.5541415,-0.85688609,2.0957503
05:46:14.156,-0.2632395,0.3597143,-9.71562,1.6650187,-0.91950113,2.1894701
05:46:14.166,-0.28252918,0.40033218,-9.7402601,2.1451166,-0.87308323,2.2189362
05:46:14.176,-0.2662383,0.37448838,-9.7569332,2.2706735,-0.91655016,2.2341678
05:46:14.186,-0.27569786,0.37620404,-9.6906338,2.4126732,-0.91761136,2.2760606
05:46:14.197,-0.24555504,0.35253656,-9.7623634,2.5323169,-0.93891829,2.2752109
05:46:14.206,-0.25379464,0.3472549,-9.7461653,2.0085688,-0.85011905,2.2722237
05:46:14.217,-0.22071898,0.37526074,-9.7537003,1.8006765,-0.90061468,2.3137286
05:46:14.226,-0.23151873,0.25118756,-9.6948195,1.1229563,-0.85610652,2.3042612
05:46:14.236,-0.23943721,0.253077,-9.7784691,0.18120845,-0.80427587,2.4034479
05:46:14.246,-0.23202506,0.35047939,-9.7346992,-0.51308966,-0.78004825,2.3722856
05:46:14.256,-0.24301024,0.33399448,-9.7081432,-0.6581977,-0.76100886,2.3612998
05:46:14.266,-0.26520067,0.32367525,-9.7006636,-0.42133796,-0.70701075,2.3013067
05:46:14.276,-0.26206434,0.35474965,-9.7533398,-0.44636226,-0.71974999,2.2887833
05:46:14.286,-0.25627366,0.36863333,-9.7266092,-0.41745564,-0.70290446,2.3677847
05:46:14.296,-0.26135799,0.39620543,-9.7430553,-0.32974669,-0.64733732,2.4290948
05:46:14.306,-0.28532401,0.33824992,-9.7172413,-0.83197272,-0.62637699,2.4920659
05:46:14.316,-0.27281198,0.40739831,-9.7400007,-0.67579019,-0.66020024,2.5400271
05:46:14.326,-0.27855575,0.43793419,-9.7537928,-0.14457715,-0.60043526,2.6209595
05:46:14.336,-0.26990595,0.44636658,-9.7205009,0.066048913,-0.58435363,2.5785348
05:46:14.346,-0.26745194,0.37931681,-9.7217808,0.5592792,-0.56135035,2.6485348
05:46:14.356,-0.26594263,0.41896528,-9.7513676,1.2634856,-0.51100606,2.6288214
05:46:14.366,-0.23932669,0.39325365,-9.7763844,1.592943,-0.4659695,2.7180805
05:46:14.376,-0.26037785,0.3749916,-9.7332163,2.1162417,-0.4843688,2.7190194
05:46:14.386,-0.27703553,0.3383081,-9.8193283,2.4433367,-0.41196054,2.6982594
05:46:14.396,-0.26336163,0.34084299,-9.7560863,2.7276621,-0.34846425,2.7125895
05:46:14.406,-0.26484463,0.37999806,-9.7786551,2.7622278,-0.41021422,2.6913259
05:46:14.416,-0.26149511,0.26656321,-9.7570848,1.8863068,-0.32958481,2.7027614
05:46:14.426,-0.29683617,0.29928792,-9.7892313,0.71593702,-0.37749007,2.7319355
05:46:14.436,-0.29422486,0.45050865,-9.7476692,0.79902691,-0.44752192,2.6422415
05:46:14.446,-0.28714752,0.35840839,-9.7779846,1.6642629,-0.46456912,2.5980506
05:46:14.456,-0.24646728,0.35868338,-9.7553148,2.3049736,-0.45123351,2.5363817
05:46:14.466,-0.24117222,0.33889586,-9.7592001,2.5413904,-0.41102305,2.5286341
05:46:14.476,-0.24172904,0.34119287,-9.7883387,2.7138968,-0.36672759,2.599262
05:46:14.486,-0.26007259,0.31899178,-9.7021942,2.8828931,-0.35204875,2.5925369
05:46:14.496,-0.24694984,0.35215729,-9.7616549,2.517082,-0.2910524,2.5786643
05:46:14.506,-0.26328701,0.31410515,-9.7722845,2.3412728,-0.30784997,2.5796599
05:46:14.516,-0.26576185,0.36802056,-9.7899532,1.9720985,-0.25569883,2.6340771
05:46:14.526,-0.24293871,0.34349144,-9.7511206,1.8568336,-0.24287933,2.7707791
05:46:14.536,-0.29068482,0.29889578,-9.8261547,2.4465244,-0.23605987,2.81883
05:46:14.546,-0.29994932,0.44243982,-9.7149267,3.1913996,-0.26205805,2.8506291
05:46:14.557,-0.28850678,0.33738485,-9.8064337,3.7044673,-0.26404467,2.9107163
05:46:14.567,-0.27770188,0.33823311,-9.7735596,3.6004066,-0.31673837,2.995151
05:46:14.577,-0.28221112,0.30266088,-9.7614241,3.6424494,-0.33123738,3.0786092
05:46:14.586,-0.29867008,0.3557657,-9.7844906,3.7387981,-0.3206636,3.0926111
05:46:14.597,-0.30711749,0.28170571,-9.7405415,3.3731825,-0.25338703,3.1280499
05:46:14.606,-0.2787987,0.27978408,-9.7888727,2.6516805,-0.27364838,3.1108215
05:46:14.617,-0.27516487,0.29920781,-9.7847548,2.0709362,-0.23894629,3.1550553
05:46:14.626,-0.29888946,0.3386721,-9.8039427,1.8116616,-0.14748572,3.1652212
05:46:14.636,-0.28572863,0.25791618,-9.7405481,2.098742,-0.1984385,3.068233
05:46:14.646,-0.2881771,0.2627545,-9.7787752,2.1623991,-0.18069291,3.1240573
05:46:14.656,-0.31069702,0.29751477,-9.7447691,2.0496597,-0.1554638,3.1258686
05:46:14.666,-0.30006948,0.30780861,-9.7586746,2.0901468,-0.15580758,3.1578388
05:46:14.676,-0.30338341,0.32451171,-9.7100658,3.1175478,-0.19558999,3.2100937
05:46:14.686,-0.31242579,0.33142498,-9.7782021,4.5131516,-0.18766728,3.2668724
05:46:14.696,-0.32326165,0.34890696,-9.7458725,5.5016184,-0.19691221,3.309886
05:46:14.706,-0.3171154,0.3430014,-9.7757435,6.2104301,-0.2490366,3.3655612
05:46:14.716,-0.29289302,0.28229606,-9.7182055,6.7011738,-0.24571696,3.3997259
05:46:14.726,-0.28918421,0.30845764,-9.8217144,6.7693825,-0.19033599,3.5227184
05:46:14.737,-0.27647886,0.29272324,-9.760746,6.6100001,-0.24951273,3.4712656
05:46:14.746,-0.27048263,0.22382557,-9.7779131,6.6905131,-0.19427922,3.464433
05:46:14.757,-0.29956287,0.16034994,-9.7908936,6.0612512,-0.23924384,3.4667232
05:46:14.766,-0.32043314,0.16862404,-9.7995729,4.5121465,-0.20867048,3.4066079
05:46:14.777,-0.31287548,0.12854566,-9.795949,3.4925158,-0.14213976,3.3497674
05:46:14.786,-0.29312634,0.17334205,-9.7361374,2.2760124,-0.14921583,3.3654685
05:46:14.797,-0.30318281,0.11043654,-9.7840242,1.2844692,-0.13504307,3.2158182
05:46:14.806,-0.30318931,0.1255421,-9.8102045,0.6725105,-0.13139671,3.2228379
05:46:14.817,-0.29958349,0.17142501,-9.7786474,-0.58710021,-0.095148154,3.2151124
05:46:14.826,-0.3026225,0.2096042,-9.7289953,-1.211771,-0.11481602,3.1850352
05:46:14.836,-0.28298849,0.20317997,-9.8108015,-1.2182078,-0.09652587,3.1994483
05:46:14.846,-0.28269589,0.26153851,-9.7229118,-1.4713141,-0.04112523,3.1691377
05:46:14.856,-0.28853112,0.23083864,-9.7642746,-0.80270761,-0.09138494,3.1461449
05:46:14.866,-0.28395513,0.27782977,-9.7456646,0.23266526,-0.076048151,3.2142839
05:46:14.876,-0.28927267,0.20077062,-9.742156,1.1673217,-0.032869246,3.1975377
05:46:14.886,-0.27676705,0.22031139,-9.7301979,2.1908937,-0.046678115,3.2842963
05:46:14.896,-0.28919184,0.19063655,-9.7458963,2.5802989,0.00081608014,3.3250928
05:46:14.906,-0.28973106,0.21591701,-9.7231131,2.9802408,-0.043816097,3.3002548
05:46:14.916,-0.30350083,0.17221472,-9.7766705,3.2899513,-0.031025078,3.3606644
05:46:14.926,-0.312345,0.18426768,-9.7810211,3.1908622,-0.0031524044,3.36184
05:46:14.936,-0.30149132,0.15281004,-9.7402849,2.9628282,-0.052195057,3.328392
05:46:14.946,-0.29800957,0.14685503,-9.7937555,3.1108773,-0.016243793,3.3792174
05:46:14.956,-0.31211936,0.17647965,-9.7437973,3.4607193,-0.019475553,3.2953575
05:46:14.966,-0.31338981,0.1353206,-9.7755795,3.5916293,-0.031791866,3.2130775
05:46:14.976,-0.30653387,0.13662803,-9.7158375,2.9011314,-0.030943222,3.2206659
05:46:14.986,-0.28853482,0.098684743,-9.7900171,2.5950527,0.04334363,3.1706505
05:46:14.996,-0.29117963,0.11979194,-9.7321539,2.3031073,0.016641708,3.0562928
05:46:15.006,-0.31377816,0.10282201,-9.7970371,2.1669765,0.021240998,3.0544064
05:46:15.016,-0.26716852,0.1017569,-9.7284775,1.0602288,0.015874639,3.0260425
05:46:15.026,-0.30684763,0.083342902,-9.8060741,0.49176469,0.0079298709,3.0580089
05:46:15.036,-0.2850399,0.16065311,-9.7244139,1.2338045,-0.043875195,3.0561371
