Time [s],ACC X [m/s^2],ACC Y [m/s^2],ACC Z [m/s^2],GYRO X [rad/s],GYRO Y [rad/s],GYRO Z [rad/s]
11:21:10.002,0.031628516,-1.0141456,-9.90282,-2.0677109,0.9789243,-3.5840793
11:21:10.012,0.027076455,-1.0617572,-9.842801,-2.548966,1.1596608,-3.658516
11:21:10.022,0.008409669,-1.2516279,-9.897564,-2.565466,1.2602935,-3.737212
11:21:10.032,0.010492468,-1.272815,-9.92523,-2.4557154,1.5428296,-3.803215
11:21:10.042,0.03369141,-1.1063005,-9.872909,-2.511987,1.7463329,-3.8603868
11:21:10.052,0.03021685,-1.0643276,-9.859489,-2.4061458,1.8820566,-3.8200953
11:21:10.062,0.027853515,-1.1195904,-9.866419,-2.2746446,2.0888748,-3.8269823
11:21:10.072,0.03279293,-1.1787405,-9.854941,-2.1973138,2.290422,-3.8183656
11:21:10.082,0.04310301,-1.1618952,-9.840473,-2.102858,2.5212946,-3.8305547
11:21:10.092,0.056296837,-1.1056669,-9.846903,-2.0013292,2.7104583,-3.7518234
11:21:10.102,0.058134448,-1.0650705,-9.862931,-1.9424654,2.9140666,-3.7055433
11:21:10.112,0.06990315,-1.0826237,-9.8452835,-1.8659438,3.1204672,-3.60219
11:21:10.122,0.07040478,-1.0976542,-9.831268,-1.8485487,3.3066602,-3.503007
11:21:10.132,0.08160701,-1.087171,-9.822104,-1.8727912,3.4685261,-3.4494066
11:21:10.142,0.08096675,-1.0541531,-9.822311,-1.9844234,3.65205,-3.2916524
11:21:10.152,0.09165889,-1.0305258,-9.812918,-2.125254,3.8075533,-3.1774943
11:21:10.162,0.101283364,-1.0299935,-9.802153,-2.1799793,3.9342515,-3.0326436
11:21:10.172,0.10158341,-1.0260193,-9.797176,-2.2604897,4.063942,-2.8611996
11:21:10.182,0.118530154,-1.0204321,-9.791506,-2.3052032,4.170337,-2.6893263
11:21:10.192,0.11631021,-0.9927455,-9.776536,-2.4001718,4.253719,-2.4984288
11:21:10.203,0.12991107,-0.9718062,-9.767548,-2.5246027,4.343418,-2.3367705
11:21:10.212,0.13446397,-0.96131766,-9.74546,-2.5571587,4.412865,-2.1339705
11:21:10.222,0.13566254,-0.95720196,-9.746233,-2.6206164,4.4621816,-1.9323323
11:21:10.232,0.16239251,-0.9399823,-9.72735,-2.7274256,4.493532,-1.7462023
11:21:10.242,0.1633801,-0.9209588,-9.725483,-2.7784023,4.4586945,-1.5666223
11:21:10.252,0.17106575,-0.9136672,-9.705002,-2.8623445,4.4794602,-1.3264449
11:21:10.262,0.18368962,-0.8964638,-9.689484,-2.934233,4.401838,-1.1711959
11:21:10.272,0.18615757,-0.88344085,-9.673044,-2.9870398,4.343107,-0.96879125
11:21:10.282,0.1963187,-0.87293273,-9.672172,-3.0726426,4.3193293,-0.7559106
11:21:10.292,0.20646444,-0.86688876,-9.647522,-3.1776588,4.2342286,-0.544285
11:21:10.302,0.209247,-0.8415086,-9.640201,-3.2759564,4.1464653,-0.3696379
11:21:10.312,0.21148899,-0.8314523,-9.625514,-3.3439834,4.0157857,-0.17134212
11:21:10.322,0.21426292,-0.8148188,-9.617548,-3.4899695,3.8837988,0.028715963
11:21:10.332,0.22852603,-0.8008263,-9.602292,-3.5802314,3.7351458,0.26184434
11:21:10.342,0.22815558,-0.7924419,-9.591211,-3.729788,3.5922275,0.42214373
11:21:10.352,0.24773099,-0.77289367,-9.591575,-3.8050425,3.4357188,0.6399272
11:21:10.362,0.24325493,-0.7652391,-9.581475,-3.9370537,3.2397277,0.80509937
11:21:10.372,0.25476104,-0.7504684,-9.574875,-4.06217,3.0293143,1.0427524
11:21:10.382,0.27081287,-0.7434012,-9.567917,-4.1637545,2.8517816,1.1451558
11:21:10.392,0.2596255,-0.73251194,-9.565324,-4.2474723,2.6361244,1.359618
11:21:10.402,0.2678497,-0.7184788,-9.565455,-4.342445,2.4081788,1.5154495
11:21:10.412,0.28688952,-0.7117255,-9.56388,-4.4413705,2.185646,1.6457902
11:21:10.422,0.2945784,-0.7042805,-9.550045,-4.508438,1.989249,1.7581028
11:21:10.432,0.29617026,-0.67742413,-9.547413,-4.6391726,1.7293613,1.9075046
11:21:10.442,0.27997574,-0.67251253,-9.544069,-4.7285967,1.4534824,1.9932052
11:21:10.452,0.28923735,-0.66457605,-9.540389,-4.759873,1.2301719,2.1107893
11:21:10.462,0.3145418,-0.6673741,-9.546618,-4.8765087,0.96180993,2.2084925
11:21:10.472,0.2801486,-0.6452353,-9.538965,-4.977582,0.694882,2.282881
11:21:10.482,0.32129255,-0.6336041,-9.548087,-5.0550747,0.44567826,2.35403
11:21:10.492,0.3232476,-0.61582106,-9.542498,-5.153793,0.17784463,2.4245248
11:21:10.502,0.2914491,-0.61987305,-9.550018,-5.275211,-0.089282,2.4922068
11:21:10.512,0.29207206,-0.59742874,-9.559464,-5.4006186,-0.35194066,2.5484908
11:21:10.522,0.32432717,-0.59513056,-9.574224,-5.5287743,-0.5943013,2.5791519
11:21:10.532,0.3036605,-0.5807893,-9.565616,-5.637564,-0.8750533,2.5979145
11:21:10.542,0.29980356,-0.5591739,-9.573952,-5.7287345,-1.1187406,2.603983
11:21:10.552,0.32436356,-0.55513763,-9.570614,-5.8524036,-1.3596145,2.6133378
11:21:10.562,0.29020718,-0.5374962,-9.599543,-5.990848,-1.5895512,2.5871844
11:21:10.572,0.29491952,-0.52865356,-9.602501,-6.111024,-1.7945616,2.600205
11:21:10.582,0.30009073,-0.5147261,-9.61862,-6.2086606,-1.9920708,2.5536554
11:21:10.592,0.30093494,-0.4914725,-9.620735,-6.29219,-2.2407398,2.480532
11:21:10.602,0.2827274,-0.4926267,-9.634794,-6.384029,-2.4117532,2.4281511
11:21:10.612,0.29923436,-0.48829833,-9.648934,-6.4160094,-2.6227307,2.3470004
11:21:10.622,0.29156664,-0.4738497,-9.663481,-6.497024,-2.768879,2.3188055
11:21:10.632,0.2844282,-0.4577756,-9.689213,-6.5286946,-2.9332623,2.1419885
11:21:10.642,0.2751868,-0.44661397,-9.697225,-6.638945,-3.0633557,2.0693085
11:21:10.652,0.27884525,-0.44776335,-9.701495,-6.7015705,-3.2037668,1.9766073
11:21:10.662,0.276552,-0.4366004,-9.723027,-6.7405767,-3.352823,1.8271451
11:21:10.672,0.2765058,-0.41350654,-9.736797,-6.777646,-3.4333282,1.6835262
11:21:10.682,0.27240458,-0.41689947,-9.7526,-6.783473,-3.5091019,1.5748038
11:21:10.692,0.26188904,-0.4106785,-9.759549,-6.771463,-3.605003,1.4180684
11:21:10.702,0.2584634,-0.40566278,-9.766438,-6.7469053,-3.6943026,1.268374
11:21:10.712,0.2725767,-0.4013838,-9.769822,-6.745751,-3.768537,1.1674627
11:21:10.722,0.25206357,-0.39838985,-9.79332,-6.684026,-3.8078933,0.9680896
11:21:10.732,0.27400607,-0.39607793,-9.782831,-6.6705985,-3.8292618,0.85346264
11:21:10.742,0.25274122,-0.4025496,-9.814284,-6.6382365,-3.841736,0.7043977
11:21:10.752,0.2285091,-0.38762844,-9.841676,-6.60593,-3.850656,0.5481392
11:21:10.762,0.26905343,-0.3809446,-9.855561,-6.557389,-3.836041,0.3691743
11:21:10.772,0.22487058,-0.38985324,-9.886822,-6.4842353,-3.789665,0.25675347
11:21:10.782,0.22249313,-0.37936443,-9.889238,-6.3934484,-3.7807055,0.10869814
11:21:10.792,0.25653577,-0.37577948,-9.893002,-6.3160357,-3.6887274,-0.0027189981
11:21:10.802,0.23958543,-0.38160098,-9.891503,-6.239309,-3.705489,-0.17436065
11:21:10.812,0.22094999,-0.3675281,-9.91726,-6.167763,-3.5709403,-0.29442343
11:21:10.822,0.2284427,-0.35670024,-9.955751,-6.044245,-3.4778042,-0.39286214
11:21:10.832,0.22673167,-0.35560694,-9.965899,-5.9108663,-3.3363495,-0.5443001
11:21:10.842,0.22053595,-0.3588888,-9.971915,-5.829908,-3.2128146,-0.64800435
11:21:10.852,0.23405538,-0.34854692,-9.969998,-5.732916,-3.084306,-0.7944844
11:21:10.862,0.21684614,-0.33223727,-10.0082035,-5.668346,-2.9371233,-0.902447
11:21:10.872,0.20034875,-0.34223768,-10.026028,-5.592116,-2.7483394,-0.97480613
11:21:10.882,0.21072738,-0.33684808,-10.021854,-5.538422,-2.5526161,-1.0567454
11:21:10.892,0.22447895,-0.32914877,-10.042827,-5.519963,-2.3555963,-1.1620356
11:21:10.902,0.2057493,-0.32270664,-10.042305,-5.501179,-2.1359446,-1.2435127
11:21:10.912,0.21455577,-0.33223617,-10.058553,-5.4336896,-1.9012028,-1.2793545
11:21:10.922,0.22359928,-0.32153043,-10.061637,-5.373962,-1.6718628,-1.4302692
11:21:10.932,0.19903667,-0.33438382,-10.077329,-5.321764,-1.4441736,-1.4838675
11:21:10.942,0.2265782,-0.33490443,-10.07427,-5.2808504,-1.1643268,-1.5717294
11:21:10.952,0.2178561,-0.32856348,-10.085251,-5.223611,-0.9000899,-1.6207885
11:21:10.962,0.20689844,-0.31636468,-10.092354,-5.1526933,-0.63477653,-1.6935692
11:21:10.972,0.22526714,-0.31112486,-10.095353,-5.0687423,-0.3622667,-1.7446884
11:21:10.982,0.23377712,-0.31491357,-10.104361,-4.997772,-0.07684922,-1.8121164
11:21:10.992,0.23811257,-0.3152057,-10.118033,-4.954396,0.20931299,-1.8303332
11:21:11.002,0.23795167,-0.3232235,-10.109538,-4.858954,0.49678436,-1.8893013
11:21:11.012,0.24312557,-0.2901196,-10.092413,-4.7903743,0.8100097,-1.9039317
11:21:11.022,0.23829365,-0.27941108,-10.113129,-4.7131004,1.1451408,-1.9417742
11:21:11.032,0.2732615,-0.31465057,-10.099422,-4.6469812,1.3610517,-1.952256
11:21:11.042,0.24867377,-0.2678577,-10.099619,-4.6088333,1.6658039,-1.9676095
11:21:11.052,0.24972731,-0.25269663,-10.086965,-4.5272164,2.0410323,-1.9837579
11:21:11.062,0.2891283,-0.2578279,-10.074321,-4.4561124,2.2926679,-1.9977107
11:21:11.072,0.25444046,-0.23566535,-10.07496,-4.371688,2.6250508,-1.9559997
11:21:11.082,0.27921793,-0.24010345,-10.075084,-4.3326473,2.8811867,-1.973125
11:21:11.092,0.2766203,-0.21566315,-10.057165,-4.228693,3.184266,-1.946716
11:21:11.102,0.286336,-0.19415349,-10.039132,-4.1250224,3.4516773,-1.9223589
11:21:11.112,0.2909537,-0.19134802,-10.011609,-4.0631433,3.6839468,-1.8686662
11:21:11.122,0.28544998,-0.17290603,-10.016694,-3.9501922,3.9648242,-1.8033515
11:21:11.132,0.30038235,-0.16072801,-9.999665,-3.838655,4.1808753,-1.7335558
11:21:11.142,0.28528762,-0.1681233,-9.978988,-3.7123554,4.394316,-1.6478829
11:21:11.152,0.31450608,-0.12993339,-9.9714365,-3.624878,4.594007,-1.5903093
11:21:11.162,0.29771525,-0.11916479,-9.9580145,-3.4682038,4.803933,-1.4490004
11:21:11.172,0.35415852,-0.09317566,-9.932377,-3.3680491,4.969234,-1.3525676
11:21:11.182,0.31555715,-0.098640636,-9.920717,-3.2308292,5.1255474,-1.2633543
11:21:11.192,0.34489366,-0.09550242,-9.917764,-3.1005802,5.2046585,-1.1143491
11:21:11.202,0.3176406,-0.0899067,-9.88894,-2.9381125,5.3184824,-1.0305423
11:21:11.212,0.37594742,-0.07324573,-9.876859,-2.7833927,5.410611,-0.91818327
11:21:11.222,0.33778,-0.081679955,-9.841556,-2.6721342,5.442628,-0.78724575
11:21:11.232,0.3581918,-0.0425725,-9.834816,-2.5450451,5.473479,-0.63370115
11:21:11.242,0.3968383,-0.05811244,-9.82618,-2.430392,5.454009,-0.52021873
11:21:11.252,0.36078492,-0.0359064,-9.779831,-2.3058558,5.438669,-0.36973122
11:21:11.262,0.42611536,-0.028706415,-9.802223,-2.1900735,5.3950324,-0.23894562
11:21:11.272,0.3704307,-0.0122374855,-9.767523,-1.9834702,5.2900023,-0.07986646
11:21:11.283,0.3757142,-0.015999727,-9.740524,-1.767766,5.1857815,0.062877566
11:21:11.292,0.46626934,0.0056370674,-9.723301,-1.644078,5.11912,0.20601158
11:21:11.302,0.39356664,0.018059293,-9.698213,-1.5013868,4.912,0.3629213
11:21:11.312,0.42402354,0.025444591,-9.688187,-1.3964977,4.7814393,0.47184074
11:21:11.322,0.51729757,0.015456928,-9.643549,-1.2986386,4.5873675,0.59084153
11:21:11.332,0.43267542,0.03270626,-9.658966,-1.1805054,4.3786926,0.71655643
11:21:11.342,0.44810864,0.028741503,-9.628608,-1.1018975,4.2083063,0.8041936
11:21:11.352,0.5515007,0.04470002,-9.618996,-1.0363657,3.9811187,0.9371212
11:21:11.362,0.49573565,0.04512671,-9.604653,-0.9786194,3.680802,1.0101838
11:21:11.372,0.47609472,0.042579863,-9.589223,-0.9318079,3.5029821,1.0650296
11:21:11.382,0.54304385,0.051896866,-9.557133,-0.88331485,3.2218478,1.136745
11:21:11.392,0.5836447,0.04485845,-9.5602,-0.87779325,2.9433522,1.2576642
11:21:11.402,0.55661917,0.05477313,-9.53028,-0.8503962,2.6727376,1.2937763
11:21:11.412,0.5197494,0.048577927,-9.551797,-0.8139799,2.3202367,1.38949
11:21:11.423,0.55333114,0.0445485,-9.54325,-0.8268298,2.0557423,1.452292
11:21:11.432,0.59887075,0.05574924,-9.535418,-0.7658432,1.7503318,1.4757357
11:21:11.442,0.6123887,0.071014084,-9.520295,-0.786429,1.4105737,1.5062462
11:21:11.452,0.59019125,0.046930507,-9.50878,-0.81385845,1.0630192,1.537395
11:21:11.462,0.55490047,0.049404822,-9.537215,-0.75425947,0.77164805,1.5628533
11:21:11.472,0.565957,0.058445446,-9.538676,-0.71483463,0.50377697,1.5892367
11:21:11.482,0.5778941,0.048510525,-9.546263,-0.7513908,0.19999136,1.5784818
11:21:11.492,0.61521834,0.054577813,-9.539239,-0.7332704,-0.10792027,1.5671027
11:21:11.502,0.63029224,0.0502272,-9.539364,-0.79467475,-0.42387143,1.5396223
11:21:11.512,0.630805,0.036857795,-9.545797,-0.8250189,-0.7096074,1.5422326
11:21:11.522,0.6245324,0.03519742,-9.543652,-0.8804583,-0.9797438,1.5421033
11:21:11.532,0.63715965,0.04066792,-9.559197,-0.9883534,-1.2222178,1.5534863
11:21:11.542,0.6002316,0.025466012,-9.633859,-1.0949029,-1.5042617,1.4906836
11:21:11.552,0.6289304,0.0030971754,-9.596172,-1.1930773,-1.7900783,1.482323
11:21:11.562,0.6268634,0.024238272,-9.602496,-1.3427722,-1.9233887,1.475078
11:21:11.572,0.57790726,0.018785471,-9.634912,-1.4254504,-2.2757509,1.4297758
11:21:11.582,0.61394876,0.0053294427,-9.63798,-1.5020801,-2.4547732,1.3992274
11:21:11.592,0.6142453,0.002289136,-9.639883,-1.6222253,-2.6990933,1.3369045
11:21:11.602,0.59716606,0.004776117,-9.665105,-1.702602,-2.9117126,1.2512189
11:21:11.612,0.60156506,-0.0010425926,-9.666219,-1.7771004,-3.143495,1.2530373
11:21:11.622,0.57730436,-0.0026536186,-9.666241,-1.8650101,-3.3705344,1.2121719
11:21:11.632,0.62314796,0.013130666,-9.660746,-1.8427026,-3.5532503,1.1109543
11:21:11.642,0.61496043,0.013423235,-9.709821,-1.8744189,-3.7376626,1.0665457
11:21:11.652,0.5786786,0.016116427,-9.693508,-1.8687361,-3.9331963,1.0150139
11:21:11.662,0.6247094,0.0020383634,-9.670363,-1.817763,-4.116461,0.987302
11:21:11.672,0.6111803,0.034873698,-9.723164,-1.7482309,-4.2949023,0.9585868
11:21:11.682,0.59655327,0.049192876,-9.700735,-1.6290158,-4.503663,0.8822816
11:21:11.692,0.59602946,0.043034174,-9.7104435,-1.4438661,-4.4952283,0.8209271
11:21:11.702,0.597576,0.033761807,-9.684483,-1.294833,-4.73774,0.82367384
11:21:11.712,0.59892166,0.039647203,-9.677017,-1.1103951,-5.0367737,0.77864707
11:21:11.722,0.5725887,0.09064462,-9.767254,-0.94042057,-4.956423,0.71336657
11:21:11.732,0.51444995,0.059568025,-9.848828,-0.73129785,-5.212976,0.75090665
11:21:11.742,0.5297002,0.005958758,-9.688107,-0.46933308,-5.1361203,0.7128057
11:21:11.752,0.56769526,0.055562913,-9.749816,-0.2663504,-5.3843107,0.6748386
11:21:11.762,0.50076705,0.04858391,-9.821693,-0.0032782098,-5.531323,0.6664967
11:21:11.772,0.54108405,0.048620805,-9.841933,0.3355615,-5.414706,0.6356981
11:21:11.782,0.51895696,0.039602917,-9.7906475,0.63951135,-5.608503,0.6462312
11:21:11.792,0.53961843,0.03760572,-9.76303,1.0156865,-5.6717496,0.5984638
11:21:11.802,0.5219978,0.046265773,-9.735439,1.4124029,-5.7412505,0.6208366
11:21:11.813,0.47966844,0.043332875,-9.886897,1.8135372,-5.691946,0.5740224
11:21:11.822,0.5133942,0.0063321632,-9.774682,2.218722,-5.662104,0.5958766
11:21:11.832,0.4450718,0.064063035,-9.766461,2.5855684,-5.772553,0.52955925
11:21:11.842,0.4524914,-0.045291107,-9.893328,3.037132,-5.593077,0.5958943
11:21:11.852,0.44062278,0.054496493,-9.689709,3.3634984,-5.6845875,0.58385307
11:21:11.862,0.46251225,-0.013901239,-10.028612,3.729048,-5.436556,0.5901151
11:21:11.872,0.4518336,-0.07043639,-9.655553,4.0863557,-5.508921,0.652262
11:21:11.882,0.42292225,-0.009385018,-9.957673,4.4049277,-5.446113,0.6419933
11:21:11.892,0.39298603,-0.051096268,-10.033692,4.756114,-5.142232,0.611002
11:21:11.902,0.38833824,0.03680162,-9.652946,5.0392356,-5.121211,0.64788264
11:21:11.912,0.3852351,-0.16291559,-10.127272,5.260268,-4.7322693,0.62344503
11:21:11.922,0.47758487,-0.0018362644,-9.673713,5.474622,-4.8705926,0.6791105
11:21:11.932,0.43202764,-0.21232077,-9.889778,5.6363277,-4.4694533,0.62182045
11:21:11.942,0.37541947,-0.043256216,-9.8041935,5.8230696,-4.3331246,0.671638
11:21:11.952,0.38132164,-0.13600104,-9.844807,6.013668,-4.040732,0.6225044
11:21:11.962,0.38934535,-0.15517893,-9.803052,6.1408634,-3.7427304,0.6132263
11:21:11.972,0.39576203,-0.20047477,-9.889493,6.265848,-3.5908532,0.62197924
11:21:11.982,0.3984736,-0.16085428,-9.861011,6.4077406,-3.271357,0.6222317
11:21:11.992,0.38167566,-0.15835692,-9.849255,6.5902514,-3.032892,0.61843723
11:21:12.002,0.37139773,-0.20301922,-9.82954,6.830695,-2.6624286,0.5942033
11:21:12.012,0.3596034,-0.20819837,-9.838716,7.014614,-2.3788,0.6226734
11:21:12.022,0.36994228,-0.26133782,-9.868702,7.1651936,-1.9644921,0.5823428
11:21:12.032,0.2889576,-0.2153953,-9.942271,7.330844,-1.7322737,0.5971265
11:21:12.042,0.36941963,-0.2360309,-9.816934,7.516663,-1.3601662,0.6149401
11:21:12.052,0.33569795,-0.2511725,-9.884421,7.7097645,-1.0047662,0.59341025
11:21:12.062,0.32160053,-0.3045305,-9.855324,7.815966,-0.7105559,0.57266176
11:21:12.072,0.32342273,-0.28787297,-9.887173,7.9152474,-0.36681676,0.5336578
11:21:12.082,0.30798396,-0.27748096,-9.89258,8.051763,-0.116760746,0.49652255
11:21:12.092,0.3142494,-0.29335746,-9.915027,8.23878,0.20805813,0.5099865
11:21:12.102,0.32553464,-0.34242174,-9.885503,8.444823,0.45555252,0.4649626
11:21:12.112,0.30713683,-0.3601958,-9.845824,8.6367655,0.83307946,0.40910196
11:21:12.122,0.30231395,-0.35561007,-9.898285,8.812051,1.0722141,0.3401889
11:21:12.132,0.2864376,-0.34861058,-9.932568,8.960319,1.3045914,0.3117764
11:21:12.142,0.29679522,-0.35840014,-9.914379,9.152427,1.5563965,0.24851063
11:21:12.152,0.31651497,-0.39398703,-9.856979,9.294235,1.7583197,0.19150764
11:21:12.162,0.27679557,-0.42931512,-9.909544,9.31503,2.0294542,0.10888197
11:21:12.172,0.2763048,-0.4066498,-9.931237,9.382868,2.2209418,0.03956957
11:21:12.182,0.3051051,-0.40020257,-9.892239,9.366302,2.3765397,-0.004114487
11:21:12.192,0.2857202,-0.3945189,-9.928554,9.450751,2.4922395,-0.10863764
11:21:12.202,0.2921433,-0.41494864,-9.818686,9.495074,2.5795023,-0.1926047
11:21:12.212,0.28806,-0.4718735,-9.981685,9.494497,2.730521,-0.2720018
11:21:12.222,0.2706827,-0.42648682,-9.920642,9.467567,2.8308601,-0.35827425
11:21:12.232,0.24250054,-0.43613663,-10.010998,9.472713,2.8611767,-0.42143375
11:21:12.242,0.30365422,-0.41880327,-9.860338,9.483381,3.0519578,-0.5066925
11:21:12.252,0.25691858,-0.38602817,-10.09377,9.497417,2.899882,-0.59479046
11:21:12.262,0.21881428,-0.50922346,-9.948443,9.476876,3.048951,-0.63159364
11:21:12.272,0.26007748,-0.43697447,-9.929507,9.492446,2.98542,-0.72112954
11:21:12.282,0.29368025,-0.47753802,-10.040168,9.48844,3.2018788,-0.82880694
11:21:12.292,0.2517354,-0.33562782,-9.921212,9.54429,2.643751,-0.82349527
11:21:12.302,0.2388832,-0.44010058,-10.10487,9.6445265,2.91527,-0.8915205
11:21:12.312,0.23818384,-0.4607827,-9.928671,9.711743,2.8698456,-0.9922661
11:21:12.322,0.28947127,-0.44520578,-9.912568,9.742566,2.65005,-1.0303766
11:21:12.332,0.27300033,-0.54289937,-10.005908,9.836445,2.5113504,-1.0497408
11:21:12.342,0.23372911,-0.45712414,-9.972253,9.950554,2.453813,-1.0771759
11:21:12.352,0.2546552,-0.4653375,-10.044286,9.976223,2.3556218,-1.0693313
11:21:12.362,0.28343922,-0.59732765,-9.9332695,10.012377,2.244324,-1.0778316
11:21:12.372,0.23922157,-0.5349961,-10.064086,10.14608,2.083288,-1.1065179
11:21:12.382,0.25590554,-0.54526484,-9.848244,10.186737,1.884087,-1.0959018
11:21:12.392,0.2226246,-0.69611967,-10.017213,10.327388,1.7164679,-1.1090107
11:21:12.402,0.3149957,-0.46868724,-9.793098,10.331374,1.5315518,-1.0218803
11:21:12.412,0.14748722,-0.69939965,-10.085164,10.365959,1.1696677,-0.98949134
11:21:12.422,0.19559863,-0.6023182,-9.97517,10.500956,1.0355963,-0.9422886
11:21:12.432,0.27307174,-0.6563801,-9.751549,10.410099,0.9376542,-0.88770264
11:21:12.442,0.26844975,-0.9413265,-9.865477,10.577675,0.8034105,-0.8244013
11:21:12.452,0.19768596,-0.6196921,-9.845322,10.5795965,0.42653954,-0.7847562
11:21:12.462,0.25577143,-0.75916475,-9.837478,10.670614,0.41172558,-0.62259597
11:21:12.472,0.20445408,-0.6364049,-9.986554,10.728176,0.30354655,-0.5175218
11:21:12.482,0.22037579,-0.73272896,-9.593121,10.717112,-0.46310958,-0.4106549
11:21:12.492,0.046731632,-0.8741237,-9.990504,10.865966,-0.44532427,-0.3253829
11:21:12.502,0.30750543,-0.7285573,-9.469281,10.73729,-0.41117093,-0.20829664
11:21:12.512,0.15402742,-0.7504737,-9.809448,10.593162,-1.0739967,-0.085621335
11:21:12.522,0.26867166,-0.9218461,-9.024486,10.672402,-1.3940729,0.06049811
11:21:12.532,0.16516653,-1.0316783,-9.780502,10.697105,-1.452724,0.22133717
11:21:12.542,0.42171663,-1.1175051,-9.158406,10.781509,-2.0413845,0.35420713
11:21:12.552,0.26929662,-0.85305506,-9.422202,10.749204,-1.7551738,0.46066228
11:21:12.562,0.23658226,-0.9065264,-9.646644,10.738991,-2.2487292,0.5783694
11:21:12.572,0.07385698,-0.9782311,-10.266335,10.705968,-1.8939512,0.63000876
11:21:12.582,0.09960133,-0.74894077,-9.62358,10.49737,-2.439309,0.8048845
11:21:12.592,-0.047750846,-1.229118,-9.792573,10.464689,-3.017787,0.8115329
11:21:12.602,0.20393862,-1.0915662,-9.8114605,10.527584,-2.5221474,0.893453
11:21:12.612,0.21144442,-1.0342442,-9.145718,10.254201,-3.4819963,0.9754227
11:21:12.622,0.20673783,-0.8987112,-9.659925,10.130449,-3.1238666,1.0119984
11:21:12.632,0.29194862,-1.0589106,-9.437334,10.126303,-3.6033242,1.1152997
11:21:12.642,0.18906556,-1.2050699,-9.364076,9.897901,-3.4435296,1.1490129
11:21:12.652,0.08490529,-1.2670791,-9.420772,9.811921,-4.0905895,1.2128432
11:21:12.662,0.19432871,-1.1790097,-9.711276,9.718837,-3.715527,1.173601
11:21:12.672,0.18249053,-1.4082984,-9.604328,9.416643,-3.4225087,1.118502
11:21:12.682,0.06862662,-1.1158816,-9.578322,9.088567,-4.2482476,1.1330401
11:21:12.692,0.22717296,-1.3528732,-9.110715,8.999815,-3.89048,1.1379822
11:21:12.702,0.10311898,-1.1952236,-9.435457,8.796671,-4.1264505,1.1049433
11:21:12.712,0.14316526,-1.4130714,-9.480609,8.52454,-3.8991942,1.0208956
11:21:12.722,0.13245806,-1.4359471,-9.774531,8.368123,-3.948316,1.046609
11:21:12.732,0.085935354,-1.3005615,-9.457099,8.175759,-3.8519723,0.9807734
11:21:12.742,0.061008334,-1.4298452,-9.568891,7.9365997,-4.013939,0.9663745
11:21:12.752,0.23645756,-1.4797992,-9.589779,7.7852273,-3.23369,0.9524683
11:21:12.763,0.14381668,-1.243403,-9.092547,7.364166,-3.9234073,0.90204567
11:21:12.772,0.016841315,-1.1092844,-10.07972,7.109471,-3.7113383,0.8560392
11:21:12.783,-0.103282616,-1.9319067,-10.27278,7.0211883,-3.0739012,0.6980207
11:21:12.792,0.12380816,-1.6002318,-9.170875,6.451082,-3.1605062,0.7039455
11:21:12.803,0.12566866,-1.3082178,-9.5215025,5.7951765,-3.133927,0.70543426
11:21:12.813,-0.0029600444,-1.606806,-10.091135,5.5826087,-2.8283303,0.6014837
11:21:12.823,0.070166044,-1.5276612,-9.717879,5.147718,-2.4266598,0.67486894
11:21:12.832,0.032622226,-1.4707711,-9.92615,4.3602858,-2.5589101,0.64268357
11:21:12.843,0.07998242,-1.5993092,-9.307123,4.1115966,-2.1542552,0.59593034
11:21:12.853,0.07935214,-1.5503626,-8.6585865,3.6212049,-2.6045363,0.64651537
11:21:12.863,0.12482365,-1.5264744,-10.39256,3.2427063,-1.8887587,0.5824208
11:21:12.872,0.099898756,-1.3159373,-9.339623,3.00225,-2.1234343,0.5127778
11:21:12.883,0.11506834,-1.4514408,-8.854324,2.6319964,-1.6749341,0.58438146
11:21:12.892,0.17849071,-1.6760892,-9.577393,2.3300228,-1.537708,0.61477906
11:21:12.903,0.2029517,-1.7161793,-9.133541,2.0480642,-1.0181935,0.5005112
11:21:12.912,0.064325266,-1.4832563,-9.587749,1.5533981,-0.830274,0.57119715
11:21:12.923,0.14775841,-1.7244769,-9.720348,1.4561446,-0.6994312,0.6056437
11:21:12.933,-0.023419699,-1.5719428,-10.005192,1.2232203,-0.23582286,0.6036093
11:21:12.943,0.12887658,-1.3414333,-9.1070795,0.9042685,-0.7014274,0.68208116
11:21:12.952,0.16243362,-1.5747898,-9.671589,0.8264233,0.07654395,0.705842
11:21:12.963,0.052429993,-1.5935453,-9.595553,0.6236224,-0.23389603,0.64183086
11:21:12.972,0.13637732,-1.5914724,-9.533892,0.50356674,-0.029724905,0.67477405
11:21:12.983,0.019967554,-1.5245062,-9.78956,0.36278945,0.14410682,0.7122143
11:21:12.992,0.08814604,-1.4125395,-9.304763,0.2952972,0.22893982,0.7301343
11:21:13.003,0.043487474,-1.4563043,-9.666465,0.14579235,0.27056012,0.79589194
11:21:13.012,0.015594487,-1.4204572,-9.643933,0.01447599,0.336491,0.8532371
11:21:13.023,0.017754955,-1.6185665,-9.560222,-0.12075816,0.2738361,0.8399637
11:21:13.032,0.13009249,-1.627933,-9.57653,-0.3953005,0.74004424,0.83635587
11:21:13.043,0.068548515,-1.4825785,-9.519238,-0.5969423,0.43651164,0.83542717
11:21:13.053,0.004961131,-1.2040138,-9.609626,-0.8217507,0.2589959,0.8248287
11:21:13.063,0.024244929,-1.5131751,-9.655562,-1.0041394,0.6646253,0.83193517
11:21:13.072,0.06689286,-1.5546808,-9.637074,-1.2235239,0.49015418,0.8739013
11:21:13.083,0.037765063,-1.5467979,-9.744554,-1.4444182,0.31448072,0.84019095
11:21:13.092,0.01294966,-1.6556933,-9.893977,-1.5963236,0.68873924,0.83026564
11:21:13.103,-0.15474096,-1.1221023,-9.99996,-1.8418822,0.39336604,0.7904243
11:21:13.112,0.0050486024,-1.3696712,-9.654912,-2.0531752,0.3461718,0.8857552
11:21:13.122,-0.079435706,-1.6392568,-10.231293,-2.141451,0.7741077,0.82852787
11:21:13.132,-0.031904884,-1.3038538,-9.670796,-2.5000272,0.21617104,0.83164227
11:21:13.142,-0.012496106,-1.4938843,-9.741543,-2.611536,0.41793248,0.80083513
11:21:13.152,-0.16616073,-1.2056919,-10.490541,-2.7998254,0.25992933,0.7915171
11:21:13.162,-0.0014912435,-1.371369,-9.561183,-3.006256,0.44251943,0.7798475
11:21:13.172,-0.1554844,-1.3132173,-10.235662,-3.1595633,0.094774045,0.72179705
11:21:13.182,-0.15965982,-1.2307492,-10.0778885,-3.3645797,0.28921726,0.5869873
11:21:13.192,-0.1581712,-1.4514221,-9.879926,-3.4471083,0.052054137,0.5475745
11:21:13.202,0.049298275,-1.1419865,-9.642503,-3.743028,-0.19480954,0.5433539
11:21:13.212,-0.035451353,-1.3728523,-9.570916,-3.8855574,-0.28327996,0.523466
11:21:13.222,-0.0036229983,-1.2620473,-9.886783,-3.9329832,-0.29130584,0.5203861
11:21:13.232,-0.1673945,-1.3133357,-9.668682,-4.2779512,-0.4010836,0.4624723
11:21:13.242,-0.14841557,-1.1216766,-9.638848,-4.3988934,-0.51426536,0.3904926
11:21:13.252,-0.016026258,-1.1572609,-9.808901,-4.485725,-0.43418103,0.342635
11:21:13.262,-0.13791464,-1.0749704,-9.812423,-4.776037,-1.2797078,0.4137414
11:21:13.272,-0.12087313,-1.1916388,-9.618832,-4.9147077,-0.7534057,0.3721891
11:21:13.282,-0.0072522545,-1.361561,-9.511989,-5.1714015,-0.8398998,0.2963719
11:21:13.292,-0.12323687,-1.281028,-9.853779,-5.366237,-1.1128601,0.35088116
11:21:13.302,-0.028890014,-1.1762881,-9.316624,-5.515416,-1.5342314,0.30549008
11:21:13.312,-0.041485462,-1.0081544,-9.491901,-5.6816845,-1.1570234,0.4347663
11:21:13.322,-0.27706787,-1.145893,-9.762108,-5.80001,-1.9581417,0.38793406
11:21:13.332,0.053638853,-1.1769149,-9.575909,-5.905376,-1.6850903,0.40994558
11:21:13.342,-0.18754514,-1.437149,-9.927719,-6.040806,-1.8941664,0.3863466
11:21:13.352,0.010174944,-0.9155173,-9.1581545,-6.0379586,-2.2667067,0.36312255
11:21:13.362,-0.25783175,-1.0240365,-9.785838,-6.096528,-2.6256175,0.41042465
11:21:13.372,-0.04570216,-1.2020781,-9.489789,-6.142473,-2.2608647,0.42249158
11:21:13.382,-0.17184527,-0.9463087,-9.938271,-6.2853556,-2.5743048,0.3242118
11:21:13.392,-0.18531892,-1.4340843,-10.212294,-6.2232533,-2.4827068,0.3282769
11:21:13.402,-0.3266583,-0.8213426,-10.161286,-6.3203387,-2.627276,0.2680731
11:21:13.412,-0.16900885,-1.0399568,-9.491769,-6.418381,-3.599725,0.36084083
11:21:13.422,-0.09953496,-1.158525,-10.008451,-6.3219495,-2.7183805,0.3326006
11:21:13.432,-0.40235162,-0.9486549,-10.093104,-6.5050898,-3.8249,0.27547008
11:21:13.442,-0.031822927,-1.3447614,-10.089607,-6.5740414,-3.571683,0.2742061
11:21:13.452,-0.42978817,-0.9320437,-10.288255,-6.730739,-3.8876402,0.13435002
11:21:13.462,-0.14599392,-0.9709032,-9.402727,-7.03315,-4.0399046,0.20911452
11:21:13.472,-0.4129919,-1.1079445,-11.44581,-7.215101,-3.7808745,0.020965517
11:21:13.482,-0.25349498,-1.07074,-9.418412,-7.5329595,-4.9388824,0.03794496
11:21:13.492,-0.24904218,-1.3218917,-10.1928215,-7.92835,-4.2340016,-0.075942844
11:21:13.502,-0.17018056,-1.3107386,-10.089967,-8.239594,-5.1144423,-0.14031823
11:21:13.512,-0.040524453,-0.69962466,-9.483246,-8.666202,-4.700831,-0.18929066
11:21:13.522,-0.46471024,-1.4890368,-10.808121,-8.98545,-5.09588,-0.24976313
11:21:13.532,-0.0878358,-1.0784041,-9.483549,-9.194124,-5.0821896,-0.29822007
11:21:13.542,0.02067802,-0.71306044,-8.859419,-9.784114,-5.3561034,-0.36874416
11:21:13.552,-0.052910898,-1.2594229,-9.673783,-9.881429,-5.0998936,-0.5346448
11:21:13.562,-0.14450595,-0.99101233,-10.070793,-10.063402,-5.245429,-0.5710041
11:21:13.572,-0.28088486,-1.3773891,-9.89251,-10.60277,-5.404369,-0.75178605
11:21:13.582,-0.023273265,-1.0594246,-9.434538,-10.75593,-4.6939473,-0.7963211
11:21:13.592,-0.12622115,-0.7638515,-9.44293,-11.041272,-5.369668,-0.8775278
11:21:13.602,-0.003837913,-1.2673922,-9.599097,-11.047666,-4.756134,-1.0230355
11:21:13.612,-0.18204717,-0.8226464,-9.738851,-11.27045,-4.6802173,-1.1045147
11:21:13.622,-0.21838905,-1.155117,-9.639252,-11.520077,-4.920518,-1.1442147
11:21:13.632,-0.04580148,-1.2607447,-9.556518,-11.340084,-4.0600204,-1.2519375
11:21:13.642,-0.06772843,-0.6015592,-8.892398,-11.516193,-4.8035016,-1.2776682
11:21:13.652,-0.055274162,-0.9825124,-10.123646,-11.415508,-3.7238684,-1.3479893
11:21:13.662,-0.18027478,-0.76292706,-9.7360525,-11.238727,-4.355526,-1.4959768
11:21:13.672,-0.06340557,-1.0334756,-8.801217,-11.267128,-3.8754125,-1.4770329
11:21:13.682,-0.117569566,-0.9590611,-9.983909,-11.165789,-3.2441444,-1.5254512
11:21:13.692,0.05825973,-0.6253307,-8.917466,-11.157898,-3.6274304,-1.4751035
11:21:13.702,-0.19858707,-1.0011758,-9.849655,-10.98994,-2.7081223,-1.4979799
11:21:13.712,-0.293554,-0.9445266,-10.012217,-10.69552,-2.6997557,-1.5251405
11:21:13.722,-0.07980406,-0.8973516,-9.3704,-10.654119,-2.1234171,-1.5109334
11:21:13.732,-0.31330734,-0.74326247,-10.139668,-10.546701,-1.9694242,-1.4982933
11:21:13.742,-0.16533768,-0.7861566,-9.800868,-10.243111,-1.8381189,-1.3972714
11:21:13.752,-0.21268862,-0.75188184,-9.67482,-10.09696,-1.3978549,-1.4061393
11:21:13.762,-0.29049277,-0.99970686,-10.2856045,-9.788517,-1.142824,-1.3782576
11:21:13.772,-0.15928029,-0.8862328,-9.550083,-9.537207,-0.9370916,-1.3783413
11:21:13.782,-0.22327308,-0.57493186,-9.825267,-9.50119,-0.26258886,-1.2137518
11:21:13.792,-0.34105107,-0.76065034,-10.226308,-9.247419,-0.42174813,-1.2056975
11:21:13.802,-0.27762976,-0.7701913,-9.710975,-8.985563,-0.14972156,-1.0977374
11:21:13.812,-0.31455976,-0.78840226,-9.947997,-8.810466,0.3395307,-1.0669208
11:21:13.822,-0.09224283,-0.7398012,-9.585545,-8.585553,0.48908073,-0.9065729
11:21:13.832,-0.22895013,-0.49258605,-9.808532,-8.58722,0.76803356,-0.8431117
11:21:13.842,-0.032422666,-0.6927826,-9.23538,-8.421424,0.91818124,-0.62655234
11:21:13.852,-0.31023163,-0.6097578,-10.06025,-8.125184,1.3586079,-0.60930604
11:21:13.862,-0.26970738,-0.8744737,-9.944603,-7.933747,1.6829524,-0.512605
11:21:13.872,-0.14726678,-0.44934252,-9.608932,-7.814686,2.0952137,-0.37674886
11:21:13.882,-0.30307564,-0.6134574,-9.887212,-7.6859984,1.9608879,-0.3065147
11:21:13.892,-0.1103297,-0.55748695,-9.80346,-7.4059877,2.4901764,-0.121818766
11:21:13.902,-0.28956965,-0.57945395,-9.808146,-7.2301526,2.5912197,0.0044600302
11:21:13.912,-0.19897665,-0.6497055,-9.896966,-7.007606,2.7153842,0.08168494
11:21:13.922,-0.28628245,-0.4007442,-10.247814,-6.7736106,2.9518552,0.17137599
11:21:13.932,-0.285984,-0.57437706,-9.644192,-6.62188,2.8375924,0.3216203
11:21:13.942,-0.16918218,-0.20384672,-9.970871,-6.44665,3.1807199,0.40780285
11:21:13.952,-0.235171,-0.5825546,-9.937261,-6.2718897,3.1736987,0.44222564
11:21:13.962,-0.19186932,-0.43987435,-9.8234415,-6.206391,3.2631946,0.5328882
11:21:13.972,-0.15128735,-0.38238302,-9.813419,-6.2277155,3.3273919,0.56232256
11:21:13.982,-0.23926154,-0.35229757,-9.979059,-6.1907105,3.4022481,0.6958371
11:21:13.992,-0.19906741,-0.30977225,-9.80883,-6.2305665,3.4287212,0.8007544
11:21:14.002,-0.17026663,-0.4660104,-9.782214,-6.332524,3.410689,0.89663583
11:21:14.012,-0.19372962,-0.3224253,-9.75639,-6.393584,3.3970745,0.98727596
11:21:14.022,-0.20528035,-0.38561326,-9.925814,-6.5120983,3.5018656,1.1174036
11:21:14.032,-0.2621099,-0.41688612,-9.776265,-6.651034,3.1310534,1.2367946
11:21:14.042,-0.19180202,-0.26715493,-9.775308,-6.749536,3.3943627,1.3559705
11:21:14.052,-0.08151944,-0.33860588,-9.512372,-6.7736273,3.1535256,1.4606643
11:21:14.062,-0.14251657,-0.33521086,-9.956734,-6.791202,3.3627834,1.547535
11:21:14.072,-0.15339614,-0.15223,-9.783505,-6.635668,3.0451937,1.6642936
11:21:14.082,-0.1507484,-0.33617282,-9.754531,-6.4924073,3.0736325,1.7765023
11:21:14.092,-0.1421531,-0.27184957,-9.807031,-6.2792854,3.1084633,1.8504579
11:21:14.102,-0.104134545,-0.23628245,-9.787108,-6.1740613,2.9615185,1.999204
11:21:14.112,-0.095144935,-0.16620603,-9.71352,-5.962835,2.857718,2.084347
11:21:14.122,-0.07557895,-0.19197166,-9.785461,-5.715974,2.7543983,2.189294
11:21:14.132,-0.090931125,-0.22287312,-9.741382,-5.520123,2.5503712,2.3111699
11:21:14.142,-0.09173637,-0.2672836,-9.706125,-5.2598953,2.4414759,2.3880134
11:21:14.152,-0.08165829,-0.03505212,-9.714357,-5.02203,2.3009384,2.5212681
11:21:14.162,-0.087070614,-0.10928414,-9.784335,-4.796391,2.2476814,2.53103
11:21:14.172,-0.08330553,-0.10929853,-9.695141,-4.4583745,1.9541558,2.5991156
11:21:14.182,-0.060275197,-0.13411032,-9.671304,-4.162609,1.9054228,2.6167488
11:21:14.192,-0.08408696,-0.083228365,-9.726806,-3.7687378,1.615452,2.6383333
11:21:14.202,-0.020859187,-0.076793544,-9.722166,-3.3796268,1.6049323,2.6948807
11:21:14.212,-0.049127646,-0.022172451,-9.657578,-3.042679,1.3570915,2.736197
11:21:14.222,-0.044196807,-0.04329766,-9.709744,-2.528916,1.2592115,2.7539847
11:21:14.232,-0.06101623,0.0025281687,-9.723771,-2.1639018,1.1635578,2.7379935
11:21:14.242,-0.059469145,-0.03291572,-9.752203,-1.736235,1.0643933,2.6957757
11:21:14.252,-0.029932324,-0.01796963,-9.674035,-1.3018953,0.98739105,2.687931
11:21:14.262,-0.082750194,0.031953417,-9.7967825,-0.95661616,0.8325572,2.6670053
11:21:14.272,-0.062239554,0.06295463,-9.69833,-0.4659096,0.7471823,2.5957084
11:21:14.282,-0.04630503,-0.0062350133,-9.754949,-0.07816062,0.6710099,2.5587285
11:21:14.292,-0.08917524,-0.016699389,-9.7243,0.32935354,0.60818446,2.5051558
11:21:14.302,-0.046471436,-0.02095307,-9.748324,0.7078256,0.5988886,2.418934
11:21:14.312,-0.061592504,0.086795576,-9.75639,1.084804,0.5397369,2.314271
11:21:14.322,-0.010322335,-0.055573992,-9.704956,1.5431921,0.5193566,2.2573357
11:21:14.332,-0.08408873,0.2509929,-9.840356,1.9272654,0.49724826,2.1509812
11:21:14.342,-0.095712975,0.008069922,-9.740068,2.353391,0.4368046,2.0837731
11:21:14.352,-0.10602923,-0.008031358,-9.740111,2.8561983,0.5572001,1.9238598
11:21:14.362,-0.03407913,0.02619157,-9.655286,3.1943834,0.5700449,1.8375591
11:21:14.372,-0.10649584,-0.109148584,-10.065136,3.7336512,0.82866126,1.6684886
11:21:14.382,-0.120833,0.2546601,-9.791836,4.1184897,0.3523693,1.5823869
11:21:14.392,-0.07104679,-0.10881589,-9.730991,4.546559,1.110158,1.3614309
11:21:14.402,-0.077079855,0.0173114,-9.980346,4.933567,0.7175292,1.2532043
11:21:14.412,-0.072223336,-0.012156823,-9.731341,5.33116,0.9908707,1.0587602
11:21:14.422,-0.16754095,-0.10837733,-9.934109,5.879458,1.0710795,0.9236898
11:21:14.432,-0.01144065,-0.11434969,-9.667628,6.3503475,1.2566588,0.7775875
11:21:14.442,-0.13777514,0.08436103,-9.823957,6.6040044,1.3852193,0.6181346
11:21:14.452,-0.02933766,-0.2106404,-9.582639,7.0599594,1.4737707,0.45276478
11:21:14.462,-0.10324234,-0.15909241,-9.941424,7.4063582,1.9339457,0.33985034
11:21:14.472,-0.16641259,-0.15820076,-9.894584,7.627015,1.5482134,0.17766093
11:21:14.482,-0.0361466,-0.23868096,-9.60456,7.990841,2.1972992,0.024907187
11:21:14.492,-0.094253965,0.058778353,-9.724006,8.043898,2.0778584,-0.16036904
11:21:14.502,0.07252051,-0.26849696,-9.634482,8.205696,2.4281814,-0.21419175
11:21:14.512,-0.14314301,-0.39836824,-10.022622,8.427448,2.7496707,-0.41742656
11:21:14.522,-0.05538177,-0.21625744,-9.767669,8.466095,2.7015738,-0.4801962
11:21:14.532,-0.09980262,-0.3051522,-9.932619,8.605305,2.8416674,-0.5759276
11:21:14.542,-0.025534557,-0.22837333,-9.7699,8.672874,3.0385454,-0.64521396
11:21:14.552,0.010634737,-0.3756274,-9.998431,8.755778,3.0783312,-0.6937039
11:21:14.562,-0.13851191,-0.42566648,-9.925459,8.98609,3.2083068,-0.8191597
11:21:14.572,-0.061672606,-0.2843767,-9.862001,9.041324,3.5618699,-0.886619
11:21:14.582,-0.09475887,-0.42170337,-10.10118,9.198281,3.2153425,-0.91089135
11:21:14.592,-0.06709232,-0.39294446,-9.826608,9.364235,3.6776993,-0.9858713
11:21:14.602,-0.037548497,-0.5061425,-9.864621,9.415584,3.5101848,-1.001834
11:21:14.612,-0.055501156,-0.47697005,-10.042964,9.601995,3.6142654,-1.0278846
11:21:14.622,-0.050005514,-0.53481597,-9.781895,9.673063,3.5946271,-1.0376152
11:21:14.632,-0.057119556,-0.52300704,-10.027971,9.741882,3.7014163,-1.0961219
11:21:14.642,-0.041394148,-0.4828607,-9.893854,9.702225,3.5519733,-1.0294588
11:21:14.652,-0.025888955,-0.5884446,-9.904662,9.696396,3.60843,-1.0122237
11:21:14.662,-0.033082355,-0.6173418,-9.904632,9.664266,3.4566739,-0.9280027
11:21:14.672,-0.019254716,-0.65762293,-9.866487,9.587211,3.3927736,-0.89334553
11:21:14.682,0.009278007,-0.6224781,-9.835067,9.457671,3.2321322,-0.7570742
11:21:14.692,-0.033966545,-0.66171235,-9.860112,9.158357,3.210424,-0.65179914
11:21:14.702,-0.031989947,-0.69578636,-9.846546,8.818686,3.0346384,-0.54045016
11:21:14.712,-0.0042413557,-0.723864,-9.862861,8.29247,2.9000895,-0.39339545
11:21:14.722,-0.004638066,-0.7360403,-9.837457,7.7273874,2.694936,-0.25670427
11:21:14.732,0.02694547,-0.71477515,-9.813821,7.2248797,2.5012863,-0.08517663
11:21:14.742,0.0022296822,-0.728524,-9.823249,6.646028,2.3006644,0.07757466
11:21:14.752,0.019495154,-0.7691411,-9.794968,6.1783032,1.9986404,0.23014848
11:21:14.762,0.018069949,-0.7668315,-9.775369,5.680343,1.8025475,0.35646036
11:21:14.772,0.0031391727,-0.7576721,-9.752404,5.2584395,1.5789336,0.50121576
11:21:14.782,0.018558308,-0.73425055,-9.795601,4.844817,1.2848787,0.6422487
11:21:14.792,0.008011808,-0.75658095,-9.794671,4.5282297,0.965369,0.7787386
11:21:14.802,0.022852093,-0.7597862,-9.771625,4.256459,0.6798042,0.9285868
11:21:14.812,0.06179105,-0.7603067,-9.719336,4.05905,0.38849068,1.0040072
11:21:14.822,-0.005190741,-0.7395561,-9.7801285,3.917802,0.12193287,1.1043109
11:21:14.832,0.023495274,-0.72561014,-9.800429,3.7945077,-0.19588006,1.2979584
11:21:14.842,0.003631558,-0.74607015,-9.823979,3.703238,-0.45731738,1.4151059
11:21:14.852,0.024784977,-0.77033895,-9.776381,3.6213257,-0.81708914,1.4925674
11:21:14.862,0.034283556,-0.74370193,-9.762394,3.53229,-1.0711627,1.618101
11:21:14.872,-0.037898608,-0.7236394,-9.878101,3.4822688,-1.3987314,1.6854779
11:21:14.882,0.031424187,-0.73310405,-9.691901,3.4605536,-1.7023846,1.7725228
11:21:14.892,-0.030354561,-0.7724137,-9.828478,3.4245508,-1.9522104,1.8926729
11:21:14.902,0.03739633,-0.76066613,-9.7493725,3.4414287,-2.3965502,1.9749436
11:21:14.912,0.018707959,-0.7316889,-9.791163,3.4818833,-2.6554065,2.062502
11:21:14.922,-0.020332284,-0.7283907,-9.781492,3.5528748,-3.0080042,2.1109273
11:21:14.932,-0.0105589805,-0.7415854,-9.797409,3.61538,-3.3584557,2.1885197
11:21:14.942,-0.03545051,-0.7663393,-9.7731285,3.6522915,-3.685862,2.2253067
11:21:14.952,-0.051186934,-0.76547414,-9.80031,3.7400804,-3.966716,2.2833424
11:21:14.962,-0.033184372,-0.7530625,-9.803374,3.79431,-4.381059,2.348211
11:21:14.972,-0.069039874,-0.7119233,-9.82321,3.8802328,-4.699344,2.3800948
11:21:14.982,-0.05269766,-0.76817346,-9.767698,4.0020585,-5.044247,2.449758
11:21:14.992,-0.078611456,-0.7740568,-9.753653,4.037718,-5.2966976,2.4549797
11:21:15.002,-0.07260326,-0.7917782,-9.708518,4.054876,-5.6661205,2.474798
11:21:15.012,-0.1027494,-0.75624007,-9.817464,3.9887896,-5.915956,2.459234
11:21:15.022,-0.196019,-0.738823,-9.858726,3.9290025,-6.1825504,2.432832
11:21:15.032,0.030059466,-0.8207432,-9.506633,3.952984,-6.4719696,2.4947276
11:21:15.042,-0.19008432,-0.7788353,-9.861365,3.8313982,-6.5927477,2.4428043
11:21:15.052,-0.066989966,-0.8569151,-9.872958,3.7923532,-6.8117456,2.5421503
11:21:15.062,-0.18131262,-0.6744195,-9.571409,3.725559,-7.1845164,2.4852424
11:21:15.072,-0.14983656,-0.89636284,-9.812404,3.7201428,-7.166543,2.5096152
11:21:15.082,-0.16020356,-0.7721245,-9.737429,3.8384743,-7.4188356,2.431963
11:21:15.092,-0.2098831,-0.76643443,-9.638313,3.7917829,-7.4826856,2.4311516
11:21:15.102,-0.1768403,-0.99160933,-9.884127,3.7687466,-7.4442263,2.3523712
11:21:15.112,-0.13431218,-0.74476653,-9.659936,3.6259446,-7.3913703,2.4095535
11:21:15.122,-0.17276952,-0.82469285,-9.630034,3.4988844,-7.6171474,2.442232
11:21:15.132,-0.22267024,-0.95013326,-9.962897,3.4286902,-7.3402214,2.4076612
11:21:15.142,-0.29144874,-0.8558982,-9.864455,3.2217634,-7.4754176,2.4267304
11:21:15.152,-0.17504796,-0.9338586,-9.449727,3.0231667,-7.2413225,2.3724923
11:21:15.162,-0.20101355,-0.79813397,-9.674693,2.7524416,-7.312591,2.4372954
11:21:15.172,-0.23795296,-1.1797924,-9.51487,2.6120315,-7.2146654,2.3752332
11:21:15.182,-0.07395629,-0.86646044,-9.362041,2.1993861,-7.199758,2.3775957
11:21:15.192,-0.20788527,-1.0804328,-9.601764,1.8684868,-6.8269935,2.3860598
11:21:15.202,-0.23569842,-1.0307897,-9.7225685,1.4817797,-6.4546866,2.380698
11:21:15.212,-0.35790807,-0.80384266,-9.862876,0.96036035,-6.112587,2.3686
11:21:15.222,-0.18389213,-0.86696076,-9.395899,0.55094576,-6.0484834,2.4762383
11:21:15.232,-0.43169874,-0.91459334,-10.317257,0.076037735,-5.5085106,2.4266393
11:21:15.242,-0.25021422,-1.1919111,-9.65717,-0.37992164,-5.1939244,2.5348873
11:21:15.252,-0.22886556,-0.9723846,-9.211445,-0.7845251,-5.536327,2.5510044
11:21:15.262,-0.15172385,-0.93254995,-9.84077,-0.9584431,-4.5399303,2.553296
11:21:15.272,-0.23109677,-1.0564623,-9.718614,-1.0975521,-4.701749,2.701324
11:21:15.282,-0.19680157,-0.79733384,-9.26293,-1.3838478,-4.203738,2.6639054
11:21:15.292,-0.19656236,-0.971864,-9.650528,-1.6252567,-3.9113822,2.6852906
11:21:15.302,-0.19381028,-0.8805887,-9.284607,-1.7841374,-3.6577656,2.7036006
11:21:15.312,-0.30865526,-1.1702378,-9.784286,-1.9487526,-3.0685234,2.748078
11:21:15.322,-0.2517253,-0.7931479,-9.604346,-2.2082279,-3.0287678,2.7547817
11:21:15.332,-0.2840303,-0.96480894,-9.668905,-2.3723838,-2.5179057,2.813785
11:21:15.342,-0.33116996,-0.8357717,-9.6419115,-2.527631,-2.4099212,2.7824705
11:21:15.352,-0.3016992,-0.9955381,-9.778035,-2.6826525,-1.9523709,2.7912502
11:21:15.362,-0.24344179,-0.8627368,-9.58216,-2.952151,-1.8968303,2.8120134
11:21:15.372,-0.29989263,-0.93484855,-9.686779,-3.1227932,-1.4956796,2.8138573
11:21:15.382,-0.26691544,-0.77390003,-9.644907,-3.2595677,-1.3217201,2.7879093
11:21:15.392,-0.32865348,-0.7968259,-9.676335,-3.4459507,-0.9439189,2.7962246
11:21:15.402,-0.26074117,-0.88889015,-9.674055,-3.665263,-0.7645361,2.7943082
11:21:15.412,-0.3525065,-0.7691344,-9.69095,-4.0184913,-0.55464476,2.7869189
11:21:15.422,-0.34051853,-0.8790924,-9.691503,-4.3179603,-0.4286245,2.792896
11:21:15.432,-0.3780959,-0.779943,-9.582616,-4.6593037,-0.36784464,2.7663438
11:21:15.442,-0.31127992,-0.9125499,-9.872,-4.9588795,-0.15797712,2.7078052
11:21:15.452,-0.3155375,-0.71901757,-9.631714,-5.280989,-0.16079819,2.6327126
11:21:15.462,-0.37523577,-0.77883476,-9.790271,-5.6878123,0.14092425,2.6181815
11:21:15.472,-0.35312903,-0.80438805,-9.867812,-5.912014,0.02800169,2.576298
11:21:15.482,-0.36593053,-0.74983966,-9.83669,-6.1951423,0.1747741,2.4944675
11:21:15.492,-0.32396126,-0.69196534,-9.600319,-6.4826946,0.21720502,2.443653
11:21:15.502,-0.3380449,-0.66828525,-9.763113,-6.732601,0.3776222,2.32879
11:21:15.512,-0.3975378,-0.8415055,-9.793854,-7.021005,0.44929352,2.3940754
11:21:15.522,-0.33992833,-0.6894792,-9.928678,-7.3011603,0.56042385,2.355825
11:21:15.532,-0.34395665,-0.6858567,-9.767206,-7.5750046,0.55536413,2.312294
11:21:15.542,-0.38560894,-0.6156355,-9.782291,-7.7397175,0.71619415,2.328452
11:21:15.552,-0.48117688,-0.6451492,-10.111784,-7.793036,0.51361626,2.3377862
11:21:15.562,-0.36861414,-0.5940062,-9.686789,-7.8342223,0.62996614,2.2115316
11:21:15.572,-0.35307264,-0.59787494,-9.7276945,-7.8996186,0.86626166,2.1987236
11:21:15.582,-0.3089983,-0.63881046,-9.883851,-7.9988365,0.7800782,2.1450398
11:21:15.592,-0.43345535,-0.64371175,-9.84082,-8.028694,0.74099845,2.1198084
11:21:15.602,-0.38671926,-0.5142197,-9.755394,-8.136109,0.8275525,2.0429907
11:21:15.612,-0.4005692,-0.61469513,-9.872745,-8.177606,0.9911232,2.037706
11:21:15.622,-0.42662132,-0.47308084,-9.901028,-8.225256,0.8509341,1.9781618
11:21:15.632,-0.45433763,-0.6177086,-9.826695,-8.375106,0.8551832,2.0230162
11:21:15.642,-0.4056064,-0.5111836,-9.744752,-8.395737,0.8634069,1.9511285
11:21:15.652,-0.45598546,-0.40446472,-9.699721,-8.487472,0.5653042,1.8981029
11:21:15.662,-0.4455964,-0.5796534,-9.925447,-8.623261,0.88054645,1.8830633
11:21:15.672,-0.3331452,-0.35856307,-9.394756,-8.78758,0.32632443,1.8656795
11:21:15.682,-0.3917905,-0.49876562,-9.893109,-8.817157,0.8251207,1.7987609
11:21:15.692,-0.42513153,-0.3781211,-9.7012,-8.945846,0.24182788,1.8425024
11:21:15.702,-0.4292163,-0.46029884,-9.434293,-9.172404,0.2745671,1.7657019
11:21:15.712,-0.41767523,-0.5401269,-9.853936,-9.217414,0.43897417,1.7889005
11:21:15.722,-0.46550882,-0.48034284,-9.92054,-9.266777,0.050438806,1.7429036
11:21:15.732,-0.47483066,-0.39032894,-9.75603,-9.365979,0.11976591,1.7194562
11:21:15.742,-0.4986253,-0.17834054,-9.520457,-9.495158,0.13756694,1.6312524
11:21:15.752,-0.28021312,-0.5470413,-9.000616,-9.564184,-0.1952748,1.6158215
11:21:15.762,-0.34145442,-0.52981323,-9.6924515,-9.443959,0.19932264,1.6171879
11:21:15.772,-0.42212415,-0.17697479,-9.657061,-9.634945,-0.5901585,1.5645839
11:21:15.782,-0.31197685,-0.5785268,-9.138966,-9.536496,-0.23153625,1.4984123
11:21:15.792,-0.42385155,-0.3390479,-9.645233,-9.503458,0.029000046,1.4535544
11:21:15.802,-0.14025752,-0.10497032,-8.892881,-9.6183815,-0.20361409,1.4633052
11:21:15.812,-0.52401686,-0.29947418,-9.740246,-9.466893,-0.3833762,1.3919567
11:21:15.822,-0.24546236,-0.4848761,-8.962004,-9.4810095,0.21298054,1.4534223
11:21:15.832,-0.4190209,-0.40007922,-9.405268,-9.610899,0.22896038,1.4082628
11:21:15.842,-0.30745697,-0.3139708,-9.486034,-9.652288,0.08251505,1.4290746
11:21:15.852,-0.3433551,-0.21777539,-9.462266,-9.628952,0.6103481,1.3489935
11:21:15.862,-0.4334295,-0.29825744,-9.512232,-9.642442,0.6459393,1.412811
11:21:15.872,-0.26829806,-0.078302935,-9.103312,-9.78356,0.45180875,1.2650352
11:21:15.882,-0.4282942,-0.21051057,-10.098494,-9.626186,1.1694835,1.3223916
11:21:15.892,-0.24791828,-0.151961,-9.416507,-9.68461,0.9811997,1.3101536
11:21:15.902,-0.51776206,-0.06527302,-10.02821,-9.70058,1.3067269,1.2109725
11:21:15.912,-0.4084745,-0.2913213,-9.867724,-9.475226,1.1226163,1.2135582
11:21:15.922,-0.4089688,-0.22293723,-9.788927,-9.399548,1.9958922,1.1314114
11:21:15.932,-0.23023643,-0.19688155,-9.170074,-9.372412,1.8602129,1.2267659
11:21:15.942,-0.31252903,-0.12820692,-9.435058,-9.223137,1.880593,1.1401621
11:21:15.952,-0.27791372,-0.31983656,-9.782739,-9.041263,2.5290706,1.1282912
11:21:15.962,-0.28030825,0.17837478,-9.553863,-8.985533,2.5225885,1.0300955
11:21:15.972,-0.3571303,-0.11593528,-9.64662,-8.849415,2.7950623,1.0043272
11:21:15.982,-0.2321764,-0.093123734,-9.757791,-8.590981,3.1392913,0.9514565
11:21:15.992,-0.26536548,0.033365622,-9.719022,-8.372471,3.3530195,0.98173094
11:21:16.002,-0.34330896,0.024585782,-9.705539,-8.053758,3.4994087,0.9590743
11:21:16.012,-0.18103787,-0.16708313,-9.604551,-7.740444,3.8901556,0.92705977
11:21:16.022,-0.29185396,-0.008796175,-9.826795,-7.481015,4.237322,0.95800346
11:21:16.032,-0.23248684,0.017209351,-9.826854,-7.246531,4.238228,0.97585666
11:21:16.042,-0.21126725,0.038007423,-9.669135,-6.9935837,4.613186,0.9316323
11:21:16.052,-0.27921072,0.08883979,-9.848123,-6.7658057,4.8615446,0.9280486
11:21:16.062,-0.25059816,0.029278133,-9.860553,-6.439889,4.877077,0.9490828
11:21:16.072,-0.28182977,0.12845622,-9.913092,-6.2591586,5.365497,0.85639614
11:21:16.082,-0.24173842,0.021471405,-9.827476,-6.0671263,5.4110436,0.85623854
11:21:16.092,-0.22828723,0.15856583,-9.89988,-5.970068,5.6498055,0.8302178
11:21:16.102,-0.2634198,0.09939076,-9.914107,-5.820121,5.7516403,0.89079356
11:21:16.112,-0.23883371,0.22022626,-9.887724,-5.6561923,5.93233,0.9087776
11:21:16.122,-0.25595403,0.10633707,-9.902819,-5.5307865,6.1192665,0.8917404
11:21:16.132,-0.23750977,0.22784191,-9.830263,-5.4222097,6.219528,0.92749023
11:21:16.142,-0.24040742,0.09179934,-9.976345,-5.268097,6.5076246,0.89412665
11:21:16.152,-0.24299987,0.20722297,-9.943906,-5.1663,6.424878,0.95766354
11:21:16.162,-0.17825143,0.07687515,-9.95799,-4.9769506,6.61362,0.98979783
11:21:16.172,-0.18704416,0.26427388,-9.928358,-4.8071475,6.7310667,1.0354543
11:21:16.182,-0.22321464,0.055458304,-9.943308,-4.566797,6.841993,1.0401503
11:21:16.192,-0.19118199,0.40265402,-9.896542,-4.3426566,6.8108134,1.0581224
11:21:16.202,-0.20808697,0.17997263,-9.955204,-4.055978,6.9283547,1.0615478
11:21:16.212,-0.24403103,0.28908312,-9.966468,-3.805494,6.854992,1.0977982
11:21:16.222,-0.20014285,0.21977346,-9.9421835,-3.5811265,6.8124814,1.1398761
11:21:16.232,-0.22578642,0.3128163,-9.985159,-3.2748392,6.736223,1.1662782
11:21:16.242,-0.18812895,0.28038487,-9.970076,-2.9297254,6.6253986,1.2541724
11:21:16.252,-0.17737724,0.31364065,-9.90865,-2.6072686,6.4590816,1.284256
11:21:16.262,-0.17532355,0.26239735,-9.935251,-2.1856344,6.519936,1.3214873
11:21:16.272,-0.17243993,0.3098875,-9.9393215,-1.7713648,6.230421,1.4415199
11:21:16.282,-0.1717159,0.34517556,-9.979093,-1.3713199,6.1929264,1.4826611
11:21:16.292,-0.1822354,0.3782447,-10.082686,-0.95248467,5.9408484,1.5800462
11:21:16.302,-0.16035381,0.3058502,-9.934137,-0.52532077,5.877876,1.6777453
11:21:16.312,-0.13936669,0.3259484,-9.759545,-0.16085276,5.4211903,1.7915612
11:21:16.322,-0.12822686,0.16503637,-9.965456,0.18102974,5.551707,1.8806891
11:21:16.332,-0.1340853,0.47328988,-9.898912,0.29723296,5.0498853,2.0406551
11:21:16.342,-0.1477352,0.07335697,-9.936663,0.33076003,4.936747,2.1826293
11:21:16.352,-0.0992918,0.4228915,-9.861631,0.29283816,4.6066966,2.295491
11:21:16.362,-0.13552487,0.15832235,-9.856324,0.34554315,4.339867,2.4153187
11:21:16.372,-0.030044483,0.34860596,-9.804832,0.40902728,4.032307,2.56683
11:21:16.382,-0.05910796,0.33134684,-9.782704,0.41717833,3.6210673,2.681486
11:21:16.392,-0.061162475,0.18817753,-9.830936,0.44159868,3.3580496,2.8426325
11:21:16.402,-0.025048485,0.32780603,-9.676667,0.43112057,2.9795465,2.9309418
11:21:16.412,-0.037045624,0.18691143,-9.847832,0.43699118,2.7444305,3.0693204
11:21:16.422,-0.0179681,0.36878824,-9.889005,0.42782983,2.3810003,3.2052307
11:21:16.432,-0.0143308975,0.18531777,-9.740503,0.4209816,2.090984,3.3232331
11:21:16.442,0.006754804,0.2775422,-9.789383,0.43568408,1.8323321,3.417431
11:21:16.452,0.036496185,0.21181966,-9.67497,0.40625533,1.5087911,3.513981
11:21:16.462,0.025190812,0.30470693,-9.731839,0.32827154,1.2593279,3.6210768
11:21:16.472,0.01872645,0.2689476,-9.708434,0.23059522,1.0009323,3.7456722
11:21:16.482,0.0070615113,0.25007045,-9.703055,0.10907674,0.7501022,3.8238542
11:21:16.492,0.0474903,0.22094359,-9.702351,-0.025591312,0.409639,3.8774512
11:21:16.502,0.03564674,0.25323555,-9.689569,-0.076339334,0.20028466,3.9756165
11:21:16.512,0.025835138,0.28586185,-9.711595,-0.1582127,-0.037650976,4.0370893
11:21:16.522,0.05785154,0.23655835,-9.640237,-0.1485718,-0.33313745,4.07297
11:21:16.532,0.06464796,0.22803521,-9.665811,-0.18205957,-0.4208079,4.1076965
11:21:16.542,0.043171335,0.2497331,-9.66593,-0.10442911,-0.7211248,4.100285
11:21:16.552,0.048102286,0.24640797,-9.682254,-0.01029302,-0.86999947,4.1466346
11:21:16.562,0.03844225,0.2597544,-9.7482815,0.17445678,-1.0312804,4.128439
11:21:16.572,0.07168314,0.20506626,-9.752436,0.40253988,-1.1582568,4.132907
11:21:16.582,0.08465144,0.22791202,-9.663941,0.67431986,-1.3705943,4.0986505
11:21:16.592,0.050318986,0.21133618,-9.705302,0.97842866,-1.4584107,4.059353
11:21:16.602,0.06861294,0.23211583,-9.676444,1.249399,-1.5516969,4.004652
11:21:16.612,0.032643523,0.19772165,-9.765152,1.432941,-1.6007562,3.9559233
11:21:16.622,0.014189935,0.19135226,-9.742596,1.6197183,-1.7012954,3.9179676
11:21:16.632,0.1179418,0.33791783,-9.119932,1.7001677,-1.7872318,3.8104944
11:21:16.642,-0.016518382,0.13877285,-10.265008,1.8387296,-1.5216928,3.7224786
11:21:16.652,0.02827781,0.2541187,-9.573922,1.7760937,-2.033304,3.7503755
11:21:16.662,0.042684484,0.034693416,-9.701417,1.4913528,-1.4785788,3.697426
11:21:16.672,0.053392984,0.14709808,-9.865175,1.1843829,-1.3549404,3.6144042
11:21:16.682,0.070634395,0.106244944,-9.626613,0.8373097,-1.6960076,3.5854614
11:21:16.692,0.046949197,0.13395423,-9.83956,0.59647065,-1.2417945,3.4497578
11:21:16.702,0.045612153,0.118289515,-9.885387,0.33608818,-1.2477576,3.411475
11:21:16.712,0.01754435,0.037374392,-9.886647,0.19439508,-1.0514852,3.315298
11:21:16.722,0.003827811,0.08574892,-9.826465,0.030620197,-0.8990398,3.2166624
11:21:16.732,0.0237585,0.100645624,-9.957387,-0.020613773,-0.6857766,3.1012664
11:21:16.742,-0.005431845,0.17193185,-9.962,-0.011152892,-0.46208996,2.9693599
11:21:16.752,0.034021422,0.12882629,-9.978566,0.1180184,-0.24433435,2.8689556
11:21:16.762,0.011101969,0.11759262,-9.993268,0.34811115,-0.06958801,2.757321
11:21:16.772,-0.015403488,0.11045486,-9.993207,0.60833824,0.15041631,2.6453006
11:21:16.782,-0.027964812,0.1449908,-10.037396,0.86025524,0.4102803,2.5060132
11:21:16.792,-0.030129889,0.19205527,-10.100261,1.1330091,0.6500115,2.4061282
11:21:16.802,-0.0034156668,0.12701339,-10.055085,1.3982332,0.75311273,2.2794807
11:21:16.812,-0.017442524,0.11412201,-10.094682,1.7225789,1.0684122,2.159207
11:21:16.822,-0.05444228,0.13913357,-10.095062,2.0254543,1.2479761,2.13496
11:21:16.832,0.0059454525,0.1536543,-10.066721,2.2600644,1.5671116,2.0398557
11:21:16.842,-0.04833133,0.19054557,-10.128517,2.432642,1.6023299,2.0453632
11:21:16.852,-0.009684191,0.105764635,-10.101802,2.6123297,1.8186265,1.991608
11:21:16.862,-0.014110724,0.13177358,-10.16021,2.8025055,1.9993681,1.9324819
11:21:16.872,-0.006457742,0.13812031,-10.071613,3.0383046,2.0636926,1.9219087
11:21:16.882,0.017104814,0.17469677,-10.103374,3.1928844,2.2405794,1.9273617
11:21:16.892,-0.02428767,0.20618394,-10.114137,3.316754,2.3451967,1.923798
11:21:16.902,-0.0073908037,0.15866387,-10.109542,3.4108303,2.4340696,1.9028547
11:21:16.912,0.0074110585,0.14575239,-10.024086,3.479996,2.3441982,1.8752342
11:21:16.922,0.013652586,0.18314177,-10.046427,3.5681887,2.4453444,1.8949277
11:21:16.932,0.012590982,0.21463919,-10.106637,3.5564964,2.2791286,1.9148008
11:21:16.942,0.020575723,0.16208048,-9.889877,3.4240785,2.3073173,1.9252038
11:21:16.952,0.035312645,0.12901422,-10.025925,3.1953065,2.209102,1.9900647
11:21:16.962,-0.02016615,0.13974844,-10.283598,2.8013244,2.0308785,2.0342643
11:21:16.972,0.03793906,0.123922646,-9.747126,2.3418193,1.8412824,2.090809
11:21:16.982,0.0063635265,0.32141933,-9.980326,1.8469108,1.7797216,2.1435018
11:21:16.992,0.038809814,0.120823376,-9.859363,1.3668664,1.5356067,2.2111979
11:21:17.002,-0.02205859,0.24327,-9.857621,0.94169265,1.3263416,2.2575295
11:21:17.012,0.06368984,0.1391185,-9.872813,0.5625057,1.1710937,2.2666545
11:21:17.022,0.045372713,0.25318965,-9.737303,0.25170746,0.76041365,2.3078146
11:21:17.032,0.05787901,0.2432189,-9.685352,-0.049254958,0.5219101,2.3358228
11:21:17.042,0.0491294,0.23013239,-9.677142,-0.4199259,0.20065787,2.3464928
11:21:17.052,0.027927931,0.20462911,-9.723238,-0.7894022,-0.042544913,2.2858036
11:21:17.062,0.032376517,0.20176665,-9.664929,-1.1165309,-0.309304,2.2747135
11:21:17.072,0.04388805,0.21952212,-9.663897,-1.461504,-0.62142146,2.2866004
11:21:17.082,0.06410484,0.23540722,-9.606785,-1.8037102,-0.9564247,2.2327018
11:21:17.092,0.023479326,0.21644801,-9.603875,-2.0690417,-1.279348,2.1937578
11:21:17.102,-0.0071870266,0.17715475,-9.550633,-2.2954025,-1.565036,2.1856272
11:21:17.112,0.03323709,0.20782982,-9.577532,-2.4669714,-1.8431646,2.125208
11:21:17.122,0.044057805,0.21723683,-9.552843,-2.5473952,-2.117862,2.0773666
11:21:17.132,0.055795617,0.24205433,-9.542463,-2.5847425,-2.4378395,1.9775511
11:21:17.142,0.038918916,0.2394893,-9.5321865,-2.6140683,-2.7490838,1.9386371
11:21:17.152,0.031691436,0.1825251,-9.516278,-2.5422335,-3.0274873,1.8885268
11:21:17.162,0.019474741,0.21139023,-9.510634,-2.514004,-3.2631428,1.7842418
11:21:17.172,0.022893628,0.19577362,-9.510967,-2.35046,-3.5660436,1.6777506
11:21:17.182,0.06534423,0.24350505,-9.527205,-2.1885653,-3.8911827,1.6011921
11:21:17.192,0.040425114,0.19164346,-9.49854,-1.9702308,-4.1679277,1.547066
11:21:17.202,0.044925377,0.15669468,-9.456448,-1.7939115,-4.3562417,1.5130537
11:21:17.212,0.025367003,0.20332327,-9.517824,-1.5975368,-4.5998926,1.4414667
11:21:17.222,-0.016779458,0.15354292,-9.517746,-1.4001111,-4.9871564,1.4129683
11:21:17.232,0.013045421,0.20086583,-9.510834,-1.2555372,-5.0772095,1.3746475
11:21:17.242,0.0077569443,0.09629596,-9.588267,-1.1359944,-5.2799516,1.3659846
11:21:17.252,-0.008509555,0.2287501,-9.49071,-0.9781892,-5.6071434,1.2913535
11:21:17.262,-0.054901447,0.09580521,-9.521123,-0.86404634,-5.6679497,1.304163
11:21:17.272,-0.04319058,0.15309168,-9.546291,-0.60497516,-5.8630924,1.2652036
11:21:17.282,-0.0024253407,0.15830581,-9.555786,-0.41724715,-5.920495,1.229138
11:21:17.292,-0.057015203,0.12566084,-9.569177,-0.14802305,-6.141512,1.2249362
11:21:17.302,-0.059825547,0.23584287,-9.5603285,0.13110234,-6.2204046,1.2024493
11:21:17.312,-0.1085798,0.10785665,-9.636773,0.44767302,-6.10368,1.1731037
11:21:17.322,-0.08688768,0.17927556,-9.588118,0.7450885,-6.1841965,1.2235546
11:21:17.332,0.039012942,0.009348944,-9.565611,1.0643023,-6.313151,1.2428883
11:21:17.342,-0.23637746,0.095482364,-9.807626,1.3399667,-5.888761,1.1958189
11:21:17.352,-0.005020995,0.32345802,-8.937324,1.5957799,-6.4630218,1.2996815
11:21:17.362,-0.21672747,0.059694313,-10.238774,1.9445468,-5.65575,1.2528989
11:21:17.372,-0.044562686,0.26178738,-9.265548,2.123938,-6.218727,1.3766541
11:21:17.382,-0.27341557,0.20925175,-10.023589,2.2421465,-5.391705,1.3644464
11:21:17.392,-0.069951996,-0.0065846434,-9.470195,2.3635228,-5.882194,1.498357
11:21:17.402,-0.13442107,-0.027678866,-10.041318,2.3432612,-4.984923,1.4765759
11:21:17.412,-0.061161585,0.17223234,-9.387028,2.2989292,-4.815678,1.637174
11:21:17.422,-0.09326534,0.23848666,-9.556865,2.2576003,-4.5829644,1.6434762
11:21:17.432,-0.19104339,0.090418264,-9.871102,2.05993,-3.8959992,1.753954
11:21:17.442,-0.1479754,0.19719417,-9.968888,1.7752799,-3.7160401,1.8907518
11:21:17.452,-0.18889311,0.19968739,-9.936966,1.3897939,-3.4108279,1.9467763
11:21:17.462,-0.2157335,0.16915262,-9.747739,1.0515807,-2.6508152,2.033187
11:21:17.472,-0.10083618,-0.15700921,-9.656863,0.7248741,-2.6211884,2.1432624
11:21:17.482,-0.068469316,0.2524417,-9.717978,0.1449917,-1.8590128,2.1791322
11:21:17.492,-0.14807883,0.20959125,-9.722751,-0.43560848,-1.8310732,2.3448586
11:21:17.502,-0.1082762,0.109978914,-9.802585,-0.86934566,-0.89868593,2.4059994
11:21:17.512,-0.20373277,0.22915539,-9.748746,-1.5175393,-0.9451497,2.5290616
11:21:17.522,-0.105879545,0.014026375,-9.855488,-2.1301153,-0.27074882,2.678341
11:21:17.532,-0.1901092,0.29530135,-9.69597,-2.7361064,0.18631633,2.7419946
11:21:17.542,-0.12379446,0.21616891,-9.762635,-3.3066616,0.38504398,2.8501744
11:21:17.552,-0.094527416,0.19093318,-9.827696,-3.7133746,1.2208652,2.9323356
11:21:17.562,-0.139076,0.33750054,-9.71922,-4.184967,1.2651712,3.071759
11:21:17.572,-0.14050254,0.18291515,-9.856482,-4.510787,1.8621341,3.1917353
11:21:17.582,-0.13898925,0.3420305,-9.735825,-4.7983966,2.125952,3.251378
11:21:17.592,-0.10473287,0.22225052,-9.808502,-5.061622,2.5050204,3.2935488
11:21:17.602,-0.08649588,0.40882918,-9.798599,-5.2751675,2.8101535,3.3763835
11:21:17.612,-0.14301372,0.3356258,-9.762419,-5.478114,3.1693609,3.4217136
11:21:17.622,-0.091890395,0.36784554,-9.838974,-5.6749043,3.5006025,3.496244
11:21:17.632,-0.12888722,0.33468252,-9.804261,-5.8268695,3.7758706,3.5568
11:21:17.642,-0.094551526,0.34425122,-9.783229,-5.910576,3.9757206,3.6441638
11:21:17.652,-0.10457924,0.37575924,-9.82439,-5.9010596,4.123944,3.7172046
11:21:17.662,-0.108304374,0.33177918,-9.769557,-5.829723,4.2727375,3.7855275
11:21:17.672,-0.13044235,0.4265026,-9.803399,-5.8232355,4.3915153,3.8532677
11:21:17.682,-0.114682466,0.33995715,-9.841175,-5.783627,4.401689,3.8797798
11:21:17.692,-0.10340238,0.3562109,-9.826862,-5.7583942,4.475087,3.9772844
11:21:17.702,-0.11214438,0.38103595,-9.757994,-5.7446914,4.614399,3.9742608
11:21:17.712,-0.11260633,0.4489266,-9.749272,-5.8000736,4.446306,3.966923
11:21:17.722,-0.1333221,0.3800739,-9.964856,-5.732298,4.5186467,4.0262294
11:21:17.733,-0.09018276,0.39944574,-9.914497,-5.6626596,4.63718,4.029932
11:21:17.742,-0.13746727,0.38581178,-9.868347,-5.5437994,4.398353,4.009415
11:21:17.752,-0.053034455,0.38667896,-9.8879,-5.404491,4.369501,4.042444
11:21:17.762,-0.151417,0.4410044,-9.934256,-5.260904,4.0976586,4.0774226
11:21:17.772,-0.10399646,0.41576946,-9.871726,-5.0016932,4.1766286,4.0406265
11:21:17.782,-0.08890594,0.432763,-9.863529,-4.803096,3.8946884,4.0486336
11:21:17.792,-0.10940598,0.36493072,-9.900116,-4.627811,3.7431886,4.0301156
11:21:17.802,-0.09486161,0.4121493,-9.939372,-4.4099064,3.504081,4.01579
11:21:17.812,-0.1249494,0.41794783,-9.91458,-4.137284,3.2711596,3.9966223
11:21:17.822,-0.09151706,0.42995626,-9.872304,-3.847179,3.0693831,4.0105968
11:21:17.832,-0.109159,0.40540925,-9.866992,-3.6923928,2.81172,3.981376
11:21:17.842,-0.113204576,0.4484802,-9.90727,-3.4930246,2.5476472,3.9129493
11:21:17.852,-0.07440928,0.4560403,-9.849582,-3.2097707,2.2890744,3.8559575
11:21:17.862,-0.1340587,0.40753254,-9.930019,-2.9012356,1.9928911,3.8142123
11:21:17.872,-0.09314531,0.4008805,-9.801757,-2.5577507,1.8074672,3.7308602
11:21:17.882,-0.09838479,0.46358988,-9.802958,-2.2756424,1.5593255,3.672643
11:21:17.892,-0.08588389,0.45722085,-9.8912525,-2.0777485,1.3664384,3.6059055
11:21:17.902,-0.053116076,0.42109108,-9.803007,-1.8282988,1.2082927,3.4957645
11:21:17.912,-0.1029626,0.42337263,-9.832418,-1.6442544,0.91318417,3.4457173
11:21:17.922,-0.10197024,0.42756173,-9.870838,-1.4461931,0.785289,3.3654628
11:21:17.932,-0.09153822,0.4232324,-9.840784,-1.2609453,0.5946282,3.2389224
11:21:17.942,-0.11376834,0.39573252,-9.926421,-1.0867088,0.5590123,3.1854568
11:21:17.952,-0.061362695,0.4506629,-9.825964,-0.93405163,0.34499532,3.0896106
11:21:17.962,-0.048595045,0.37846404,-9.661354,-0.74133956,0.34085047,2.992776
11:21:17.972,-0.008473734,0.44167793,-9.931319,-0.6582129,0.30731806,2.931527
11:21:17.982,-0.065417625,0.38132486,-9.7560425,-0.68626076,0.17847954,2.859549
11:21:17.992,0.03624362,0.55805075,-9.547841,-0.75106835,0.27754393,2.7941265
11:21:18.002,-0.24268883,0.35591528,-10.1463785,-0.8205298,0.36101705,2.7183616
11:21:18.012,0.052574817,0.27603817,-9.768406,-0.85252666,0.31908542,2.7275426
11:21:18.022,-0.092572436,0.62660694,-9.928469,-1.1505283,0.25384068,2.6904888
11:21:18.032,-0.05402414,0.33292392,-9.79658,-1.2531426,0.46642616,2.641436
11:21:18.042,-0.07851013,0.29203433,-9.874158,-1.429634,0.5077075,2.5727293
11:21:18.052,0.021568472,0.43270507,-9.706721,-1.7723552,0.70545316,2.5638962
11:21:18.062,0.004301019,0.5627291,-9.548162,-1.9957389,0.5251808,2.4533727
11:21:18.072,-0.06988902,0.37488773,-9.944068,-2.1235542,1.1353338,2.4674366
11:21:18.082,0.055191044,0.5196364,-9.599688,-2.5124307,0.8316867,2.5094564
11:21:18.092,0.030425997,0.51827157,-9.797365,-2.7828887,1.5471283,2.466819
11:21:18.102,-0.066790715,0.43066847,-9.752098,-2.9387374,1.5109627,2.4993396
11:21:18.112,0.019381676,0.43742526,-9.808632,-3.1440127,1.8709339,2.573977
11:21:18.122,0.029579367,0.6645504,-9.7641115,-3.3070285,2.1621947,2.5850196
11:21:18.132,-0.0048991456,0.5096191,-9.775734,-3.3381348,2.3329506,2.6770003
11:21:18.142,0.027232435,0.667989,-9.846093,-3.407272,2.5703897,2.7430687
11:21:18.152,0.0016494656,0.47912136,-9.794322,-3.3600261,2.7674258,2.830428
11:21:18.162,-0.006964958,0.5775021,-9.848289,-3.2138848,3.1203,2.8831322
11:21:18.172,0.0034546475,0.64198226,-9.811444,-3.1336093,3.1655674,2.996589
11:21:18.182,-0.0030681596,0.7052872,-9.780739,-2.9876668,3.4599202,3.1120803
11:21:18.192,0.08058587,0.6262112,-9.895361,-2.8475735,3.6399548,3.2995546
11:21:18.202,0.02680704,0.63707966,-9.797528,-2.7049673,3.67811,3.4142497
11:21:18.212,0.0018364099,0.6147586,-9.758503,-2.5040166,3.9705427,3.5572507
11:21:18.222,0.024869936,0.65716594,-9.7646475,-2.3266985,4.003087,3.7026072
11:21:18.232,0.051273584,0.7021777,-9.789211,-2.185826,4.210752,3.9183614
11:21:18.242,0.09726647,0.72176075,-9.775977,-2.0947158,4.171057,4.133629
11:21:18.252,0.07740159,0.65382075,-9.734054,-1.9984279,4.276211,4.307653
11:21:18.262,0.055183426,0.6770995,-9.7414,-1.9303463,4.3980393,4.481361
11:21:18.272,0.07721732,0.69522035,-9.734534,-1.8900748,4.4236665,4.6397405
11:21:18.282,0.08274607,0.7478172,-9.797931,-1.8799739,4.488926,4.824981
11:21:18.292,0.14791918,0.7198541,-9.715187,-1.9408959,4.477226,4.9797945
11:21:18.302,0.099417545,0.7023065,-9.786515,-1.9986811,4.5713716,5.1433463
11:21:18.312,0.11854173,0.6815592,-9.702272,-2.0726304,4.4841356,5.306491
11:21:18.322,0.15405454,0.7176527,-9.750845,-2.3010037,4.5283275,5.4294257
11:21:18.332,0.124235846,0.76169425,-9.743978,-2.520166,4.466551,5.5952363
11:21:18.342,0.18041064,0.7342062,-9.731972,-2.763767,4.421934,5.7017417
11:21:18.352,0.18023121,0.6999002,-9.737381,-2.9663684,4.3610296,5.7758274
11:21:18.362,0.16944925,0.7017194,-9.662585,-3.151627,4.280855,5.839023
11:21:18.372,0.1746328,0.71938443,-9.697411,-3.359265,4.1908455,5.9156146
11:21:18.382,0.17219673,0.7452297,-9.702857,-3.6355808,4.0974975,5.9417076
11:21:18.392,0.19625375,0.6844308,-9.713658,-3.917712,4.023218,6.011295
11:21:18.402,0.18628725,0.6472945,-9.706105,-4.1973844,3.8682983,6.010809
11:21:18.412,0.19315276,0.65439385,-9.688018,-4.390043,3.7572477,6.0000362
11:21:18.422,0.2028731,0.6612133,-9.709748,-4.5511637,3.6806014,5.943373
11:21:18.432,0.1930511,0.69299895,-9.711242,-4.6671753,3.539583,5.9306583
11:21:18.442,0.22004223,0.6599789,-9.714692,-4.714378,3.4194987,5.87055
11:21:18.452,0.21754187,0.6278378,-9.700729,-4.6836185,3.2458303,5.814918
11:21:18.462,0.21218285,0.651571,-9.68521,-4.5156813,3.058623,5.726803
11:21:18.472,0.21455814,0.65233415,-9.655246,-4.353611,2.940811,5.630036
11:21:18.482,0.20685531,0.69300735,-9.700856,-4.1898255,2.7760704,5.535335
11:21:18.492,0.20860359,0.65458345,-9.686819,-3.928081,2.6146998,5.399346
11:21:18.502,0.2033653,0.6365336,-9.69525,-3.559127,2.4347737,5.2340946
11:21:18.512,0.2097704,0.6235513,-9.691219,-3.0899842,2.3050773,5.1266365
11:21:18.522,0.2080671,0.62892133,-9.709159,-2.6736586,2.0882998,4.997926
11:21:18.532,0.19040571,0.68256056,-9.662286,-2.2829022,1.8935575,4.841798
11:21:18.542,0.19379112,0.62131935,-9.683927,-1.8141654,1.7470993,4.7141585
11:21:18.552,0.2061981,0.64074504,-9.678914,-1.3920784,1.5873343,4.5100985
11:21:18.562,0.19478667,0.6342696,-9.711339,-0.93370926,1.3520461,4.3355136
11:21:18.572,0.22585143,0.6561485,-9.694717,-0.5237356,1.1494312,4.194202
11:21:18.582,0.18963377,0.65894926,-9.655843,-0.10837273,0.9707831,3.9245503
11:21:18.592,0.18757774,0.5979737,-9.693018,0.2899405,0.8421609,3.7644737
11:21:18.602,0.20125675,0.63367176,-9.661519,0.70476276,0.7405032,3.577183
11:21:18.612,0.20113637,0.6268694,-9.737047,1.0884842,0.5530802,3.4104805
11:21:18.622,0.21635257,0.63949114,-9.687743,1.4250771,0.35850137,3.2897851
11:21:18.632,0.20490913,0.61843663,-9.681495,1.7443371,0.21680893,3.1724546
11:21:18.642,0.19687451,0.56466275,-9.688855,2.079747,0.1021292,3.005142
11:21:18.652,0.20873848,0.5650507,-9.678764,2.3988469,-0.017116997,2.8831215
11:21:18.662,0.18040398,0.57429224,-9.724152,2.6628172,-0.087212354,2.7177355
11:21:18.672,0.21103173,0.6060702,-9.710549,2.926504,-0.24189097,2.5751674
11:21:18.682,0.19124424,0.5809714,-9.74678,3.093229,-0.30676156,2.4623997
11:21:18.692,0.20270133,0.5614129,-9.705327,3.2174635,-0.3610421,2.3533585
11:21:18.702,0.22702618,0.5618902,-9.685225,3.3716328,-0.4617539,2.2681649
11:21:18.712,0.18638729,0.5791729,-9.739482,3.4497256,-0.49815,2.1673825
11:21:18.722,0.21052821,0.59209263,-9.779515,3.4696856,-0.5385791,2.0806222
11:21:18.732,0.19659624,0.5423267,-9.777639,3.4865224,-0.54616725,2.0654693
11:21:18.742,0.21473368,0.54476064,-9.770662,3.4693484,-0.62817264,2.050186
11:21:18.752,0.22242002,0.544484,-9.767079,3.4216704,-0.6899625,1.9678147
11:21:18.762,0.20336318,0.6012408,-9.762525,3.2865505,-0.6830308,1.9467219
11:21:18.772,0.22250447,0.6077827,-9.818695,3.1138234,-0.6945723,1.9133115
11:21:18.782,0.22228411,0.53693444,-9.811018,2.9150386,-0.7634532,1.871545
11:21:18.792,0.23822354,0.5875235,-9.794282,2.7029893,-0.7657258,1.8583295
11:21:18.802,0.24866007,0.5690813,-9.802865,2.4349241,-0.8366039,1.7606151
11:21:18.812,0.2059412,0.6010599,-9.848583,2.0936131,-0.82200414,1.7618879
11:21:18.822,0.23746568,0.635707,-9.831285,1.6074935,-0.83889854,1.7529202
11:21:18.832,0.22468773,0.6099899,-9.853928,1.0669862,-0.80941916,1.768251
11:21:18.842,0.23012704,0.6039801,-9.845483,0.5539026,-0.84640366,1.7431381
11:21:18.852,0.24117799,0.62390333,-9.8129,0.06546143,-0.8338746,1.747687
11:21:18.862,0.20219122,0.6644128,-9.841185,-0.45932308,-0.8759724,1.7663679
11:21:18.872,0.23492093,0.69764924,-9.850051,-0.98289603,-0.82032645,1.8216884
11:21:18.882,0.19527139,0.6728446,-9.87104,-1.4984809,-0.8600009,1.8615859
11:21:18.892,0.22883552,0.67290246,-9.816505,-1.9532105,-0.882144,1.8174479
11:21:18.902,0.24567084,0.7118938,-9.823736,-2.3670006,-0.9166286,1.8988496
11:21:18.912,0.17546031,0.74137557,-9.82586,-2.735089,-0.8877761,1.927706
11:21:18.922,0.22731511,0.77367765,-9.871563,-3.003532,-0.8638256,1.9832724
11:21:18.932,0.18959099,0.75381875,-9.849765,-3.227447,-0.90905565,2.068512
11:21:18.942,0.19809832,0.7614185,-9.829953,-3.3232212,-0.94841176,2.1160488
11:21:18.952,0.21263045,0.81446815,-9.831564,-3.2954862,-0.9627145,2.148234
11:21:18.962,0.16540395,0.8410679,-9.826325,-3.1787617,-1.0258043,2.1817153
11:21:18.972,0.18572429,0.84300053,-9.859318,-2.9964201,-1.0485379,2.2333612
11:21:18.982,0.17407055,0.83840704,-9.848692,-2.7285743,-1.0957931,2.274068
11:21:18.992,0.17472377,0.8268581,-9.832543,-2.4471345,-1.1571091,2.314716
11:21:19.002,0.20197052,0.85386485,-9.781573,-2.0155847,-1.3234725,2.3195622
11:21:19.012,0.124364264,0.85898376,-9.820366,-1.5767436,-1.32579,2.336769
11:21:19.022,0.17552331,0.87026626,-9.857652,-1.1191919,-1.376901,2.364819
11:21:19.032,0.13987862,0.8470787,-9.819983,-0.6014405,-1.5314918,2.4178045
11:21:19.042,0.15476902,0.80708,-9.819557,-0.17515267,-1.6061108,2.4121208
11:21:19.052,0.16677126,0.87499535,-9.807996,0.29400346,-1.776695,2.4668434
11:21:19.062,0.113593906,0.8558358,-9.780439,0.75568473,-1.8492197,2.45461
11:21:19.072,0.13527912,0.8709875,-9.832026,1.2672931,-1.9849591,2.482406
11:21:19.082,0.11642999,0.82678425,-9.838751,1.7263998,-2.0944357,2.460475
11:21:19.092,0.12871946,0.8122467,-9.811282,2.264807,-2.2805338,2.4485588
11:21:19.102,0.13924025,0.8219852,-9.783004,2.8258007,-2.5092578,2.4510374
11:21:19.112,0.08307212,0.8519726,-9.804169,3.341191,-2.6165802,2.4542196
11:21:19.122,0.109869674,0.8445817,-9.820313,3.781714,-2.751836,2.4224315
11:21:19.132,0.08520523,0.7987314,-9.845061,4.241759,-2.8406348,2.3634384
11:21:19.142,0.115142986,0.8253185,-9.803136,4.7652373,-3.0086946,2.30499
11:21:19.152,0.12010238,0.83882,-9.846004,5.357971,-3.1692188,2.286956
11:21:19.162,0.10240149,0.86222684,-9.776257,5.942902,-3.2809803,2.1954563
11:21:19.172,0.09349695,0.8139061,-9.827625,6.467258,-3.4523654,2.1267767
11:21:19.182,0.0963616,0.7970697,-9.762686,6.877677,-3.5798824,2.0483007
11:21:19.192,0.05389208,0.7596145,-9.844558,7.2711363,-3.7068076,1.9520857
11:21:19.202,0.102808446,0.7438032,-9.770337,7.5606675,-3.82266,1.8176012
11:21:19.212,0.090298906,0.73173237,-9.860197,7.800155,-4.0409565,1.7523398
11:21:19.222,0.1253518,0.6728621,-9.757354,8.027115,-4.2112303,1.593732
11:21:19.232,0.10377349,0.6595276,-9.770961,8.133074,-4.2676983,1.4547744
11:21:19.242,0.1100898,0.57686496,-9.719049,8.21537,-4.3942213,1.3218765
11:21:19.252,0.084260106,0.640756,-9.742051,8.240994,-4.5221295,1.1045992
11:21:19.262,0.09877129,0.56631684,-9.798807,8.130282,-4.59885,0.9593302
11:21:19.272,0.11554017,0.559746,-9.756825,7.981502,-4.7618136,0.8158551
11:21:19.282,0.108767286,0.5173938,-9.725579,7.759476,-4.831063,0.6525606
11:21:19.292,0.078582585,0.4952006,-9.709411,7.532385,-4.948109,0.5039874
11:21:19.302,0.08817676,0.4906074,-9.644325,7.288964,-5.009422,0.39510226
11:21:19.312,0.065565445,0.44043303,-9.758542,6.9766774,-5.0273814,0.24094556
11:21:19.322,0.04081714,0.3921666,-9.768528,6.661808,-5.132729,0.14885505
11:21:19.332,0.1342129,0.38667592,-9.655858,6.2644014,-5.127397,0.094349034
11:21:19.342,0.05446201,0.39630514,-9.728288,5.8979464,-5.1943855,0.021157537
11:21:19.352,0.08023542,0.3576742,-9.6931095,5.539563,-5.1383824,-0.005368996
11:21:19.362,0.052915316,0.3541932,-9.69898,5.141273,-5.097995,-0.019681957
11:21:19.372,0.05158209,0.30554837,-9.660637,4.75196,-5.049972,-0.053039894
11:21:19.382,0.043988556,0.3509434,-9.7706585,4.2981534,-4.983467,-0.02960237
11:21:19.392,0.027921228,0.2994782,-9.6754265,3.8231323,-4.937396,0.070837535
11:21:19.402,0.07296627,0.31421894,-9.720143,3.322487,-4.7814684,0.14030334
11:21:19.412,0.00030003735,0.27886686,-9.711157,2.8446593,-4.649941,0.2390207
11:21:19.422,0.03354808,0.24828249,-9.681187,2.409956,-4.4927993,0.40401018
11:21:19.432,0.049282152,0.270802,-9.761223,1.9589466,-4.276105,0.5490802
11:21:19.442,0.0083699245,0.28423995,-9.717816,1.7124571,-4.1724415,0.76350546
11:21:19.452,0.018022062,0.30486187,-9.72519,1.4781883,-3.9738922,0.95404965
11:21:19.462,-0.01034189,0.22777918,-9.724237,1.3398811,-3.632989,1.1536485
11:21:19.472,-0.010531218,0.24220426,-9.768814,1.307038,-3.5222263,1.3558637
11:21:19.482,-0.006295125,0.24217774,-9.729147,1.277043,-3.2299616,1.5970345
11:21:19.492,-0.034619518,0.2761905,-9.746303,1.2628587,-3.012517,1.8482635
11:21:19.502,-0.018330215,0.3020484,-9.729635,1.220629,-2.8519175,2.1148553
11:21:19.512,-0.054910373,0.28177643,-9.761478,1.1782168,-2.5835962,2.3843987
11:21:19.522,-0.061462283,0.28285593,-9.7951565,1.1470759,-2.3249857,2.676215
11:21:19.532,-0.05085516,0.30017638,-9.7762,1.1129067,-2.1860304,2.946136
11:21:19.542,-0.068724915,0.33880985,-9.793524,1.1325423,-2.0060122,3.224459
11:21:19.552,-0.06734911,0.36564997,-9.807698,1.1181325,-1.86507,3.5577133
11:21:19.562,-0.10237607,0.34283346,-9.814097,1.1567972,-1.664686,3.8451278
11:21:19.572,-0.08043498,0.3246031,-9.841875,1.2698258,-1.5146589,4.1184044
11:21:19.582,-0.062240772,0.37709832,-9.853877,1.3444328,-1.3640984,4.4299364
11:21:19.592,-0.06104651,0.43057698,-9.745002,1.5024672,-1.1828629,4.6842465
11:21:19.602,-0.032971434,0.47389874,-9.835323,1.5734931,-0.97328633,4.919869
11:21:19.612,-0.1313637,0.39612055,-9.969894,1.6805362,-0.8892408,5.160225
11:21:19.622,-0.08758704,0.4421658,-9.9511175,1.7062685,-0.69209653,5.41051
11:21:19.632,-0.08116212,0.402219,-9.884657,1.5958847,-0.5927558,5.6097364
11:21:19.642,-0.11439452,0.4616494,-9.889785,1.482205,-0.47089067,5.7867217
11:21:19.652,-0.10294899,0.42452854,-10.018559,1.3266376,-0.32549718,5.92534
11:21:19.662,-0.14035545,0.46191505,-9.921981,1.1243685,-0.23318775,6.021822
11:21:19.672,-0.11803185,0.37217373,-9.95561,0.9036549,-0.1812586,6.090315
11:21:19.682,-0.097541526,0.4226203,-9.933647,0.6176587,-0.18294522,6.1312985
11:21:19.692,-0.13495654,0.30896527,-9.966595,0.36657408,-0.10147867,6.1562414
11:21:19.702,-0.13792847,0.4793479,-9.968463,-0.058713842,-0.18002057,6.1230817
11:21:19.712,-0.10651527,0.24956302,-9.931734,-0.5729606,-0.051805623,6.094955
11:21:19.722,-0.07039093,0.44027764,-10.014485,-1.2081863,-0.1333671,6.0428348
11:21:19.732,-0.084629595,0.28032666,-9.90089,-1.9559894,-0.09822798,5.9608374
11:21:19.742,-0.14590123,0.34046113,-9.962412,-2.520762,-0.17675988,5.829441
11:21:19.752,-0.15251571,0.40312684,-9.896607,-3.1574137,-0.27216113,5.7351317
11:21:19.763,-0.15980032,0.1993241,-9.898121,-3.7613714,-0.16014618,5.6581473
11:21:19.772,-0.08794655,0.35979626,-9.669647,-4.3623514,-0.37116644,5.5379868
11:21:19.783,-0.17888486,0.0529136,-9.769802,-5.031162,-0.3912966,5.4232116
11:21:19.792,-0.045379233,0.4276206,-10.052655,-5.6181464,-0.18547961,5.264958
11:21:19.803,-0.26381138,0.5422044,-9.930756,-6.282352,-0.5220664,5.114802
11:21:19.812,-0.16276456,0.19321218,-9.797125,-6.671193,-0.18104695,4.994485
11:21:19.823,-0.110324346,0.40419343,-9.612501,-7.0017767,-0.68125,4.8747535
11:21:19.832,-0.14651448,0.3640723,-9.88026,-7.2664065,-0.22127075,4.707232
11:21:19.843,-0.17130163,0.20458843,-9.874455,-7.480254,-0.60549706,4.650074
11:21:19.852,-0.15989642,0.56867284,-10.057573,-7.729253,-0.22015873,4.4677763
11:21:19.863,-0.27091095,0.4847702,-9.710918,-7.922542,-0.5839902,4.4070787
11:21:19.872,-0.19595481,0.40955508,-9.891978,-7.9501033,-0.43211523,4.244704
11:21:19.883,-0.15408921,0.2883959,-9.798388,-8.094528,-0.2578234,4.073752
11:21:19.893,0.004974758,0.6002191,-9.477201,-8.051701,-0.47259843,4.0029807
11:21:19.902,-0.20492707,0.44708288,-9.943153,-7.8199434,-0.6254172,3.8458269
11:21:19.912,-0.1908789,0.4920712,-9.724343,-7.505648,-0.50973576,3.7587295
11:21:19.922,-0.19173211,0.49069625,-9.658548,-7.300478,-0.6073702,3.6479666
11:21:19.932,-0.12250234,0.343599,-9.712348,-6.895033,-0.60550374,3.5328631
11:21:19.942,-0.02891276,0.5882392,-9.502894,-6.507584,-0.6874997,3.389209
11:21:19.952,-0.17243902,0.58116335,-9.86776,-6.1563015,-0.79236835,3.175687
11:21:19.962,-0.17539749,0.64101356,-9.804377,-5.736207,-0.73448217,3.065987
11:21:19.972,-0.051502977,0.46544486,-9.491277,-5.4057975,-0.8573224,2.9191806
11:21:19.982,-0.13116197,0.4680972,-9.77609,-5.103759,-0.8646117,2.7819974
11:21:19.992,-0.12396432,0.57481337,-9.626918,-4.833564,-1.1102924,2.5986738
11:21:20.002,-0.08597195,0.44647685,-9.406197,-4.530925,-0.714565,2.4590962
11:21:20.012,-0.20910238,0.6253978,-9.750109,-4.4695325,-1.0983031,2.3205588
11:21:20.022,0.02070965,0.18967725,-9.322943,-4.378015,-0.74962574,2.1067634
11:21:20.032,-0.19791052,0.52778727,-9.938389,-4.5043573,-0.91819286,1.892995
11:21:20.042,-0.048236303,0.52790594,-9.327167,-4.7404523,-1.07409,1.7335092
11:21:20.052,-0.054619547,0.43861732,-9.585344,-4.950001,-0.5655823,1.4698522
11:21:20.062,-0.11503629,0.63560385,-9.600127,-5.3912888,-0.94115174,1.2875819
11:21:20.072,-0.021015232,0.33187425,-9.673631,-5.7395387,-0.57549834,1.1230603
11:21:20.082,-0.09250716,0.58504397,-9.674154,-6.120779,-0.6828577,0.9359547
11:21:20.092,-0.07369075,0.3751421,-9.635698,-6.5775046,-0.3706626,0.77757424
11:21:20.102,-0.12098752,0.53053635,-9.857222,-6.9425955,-0.39807326,0.54856336
11:21:20.112,-0.07208383,0.6777057,-9.582667,-7.493447,-0.3610094,0.37629896
11:21:20.122,-0.11389073,0.4488011,-10.03538,-7.8795295,-0.014732658,0.24221373
11:21:20.132,-0.094771124,0.53679496,-9.719695,-8.304955,-0.091512285,0.10893228
11:21:20.142,-0.052658346,0.5495462,-9.722229,-8.7351265,0.013717273,0.012735167
11:21:20.152,-0.14073092,0.697911,-9.596629,-9.117636,0.16138743,-0.048885673
11:21:20.163,-0.17305705,0.6018257,-9.940574,-9.443553,0.17217796,-0.044104215
11:21:20.172,0.089381225,0.61558443,-9.730695,-9.738904,0.31020477,-0.04631985
11:21:20.182,-0.16379891,0.73548037,-9.832915,-9.9192,0.30113274,0.051525373
11:21:20.192,-0.12223828,0.62476116,-9.863876,-9.976845,0.2668396,0.05656905
11:21:20.202,-0.0574012,0.8107828,-9.742595,-9.9562,0.4671981,0.1469662
11:21:20.212,-0.14596972,0.7752466,-9.728908,-9.829655,0.3927334,0.26642257
11:21:20.222,-0.084121644,0.8678738,-9.790703,-9.764658,0.48236546,0.40909463
11:21:20.232,-0.12536336,0.8162805,-9.814475,-9.628024,0.5664955,0.49319047
11:21:20.242,-0.1614806,0.831328,-9.806607,-9.404543,0.48756665,0.71044856
11:21:20.252,-0.13756572,0.8641814,-9.801062,-9.136705,0.5074553,0.9252454
11:21:20.262,-0.15465066,0.91521525,-9.875086,-8.785175,0.58257675,1.1513387
11:21:20.272,-0.16449839,1.12693,-9.934136,-8.44327,0.36691883,1.3629336
11:21:20.282,-0.13070711,0.81739074,-9.718247,-8.069097,0.3662216,1.616902
11:21:20.292,-0.2027414,1.1558547,-9.981158,-7.580872,0.4106888,1.8425462
11:21:20.302,-0.16113332,1.0051029,-9.716628,-7.206775,0.1904607,2.1751535
11:21:20.312,-0.12454145,1.1353613,-9.804948,-6.7847667,0.37070137,2.4822772
11:21:20.322,-0.19914731,1.296467,-10.037836,-6.4557834,0.33326042,2.8230658
11:21:20.332,-0.15349658,0.9894629,-9.797564,-6.016861,-0.2254307,3.1862452
11:21:20.342,-0.19543362,1.2025057,-9.870572,-5.682369,0.026422057,3.4351711
11:21:20.352,-0.11416108,1.0757653,-9.776967,-5.3464446,0.0661175,3.729064
11:21:20.362,-0.18812282,1.1780921,-9.910899,-5.0309534,-0.56185913,4.06187
11:21:20.372,-0.020673301,1.2112206,-9.571942,-4.6519766,-0.2986318,4.2527165
11:21:20.382,-0.16003498,1.0850874,-9.82721,-4.3439445,-0.50236976,4.5913563
11:21:20.392,-0.16992302,1.144831,-9.949836,-3.9802287,-0.6150966,4.7964478
11:21:20.402,-0.10807359,1.2193446,-9.573126,-3.624738,-0.8041516,5.0107627
11:21:20.412,-0.1391995,1.033351,-9.953168,-3.1480882,-0.5006619,5.1499333
11:21:20.422,-0.12507078,1.4115545,-9.706885,-2.8030772,-0.96014273,5.3355083
11:21:20.432,-0.16550793,1.2121336,-9.677202,-2.4815114,-0.7906051,5.430951
11:21:20.442,-0.15400708,1.394879,-9.955169,-2.0177524,-0.9948084,5.578864
11:21:20.452,-0.08172521,1.126531,-9.6001425,-1.6236168,-0.91742176,5.5969763
11:21:20.462,-0.12921342,1.2585156,-9.938702,-1.3087248,-0.96708274,5.666067
11:21:20.472,-0.055693835,1.3815094,-9.518089,-1.0763429,-1.0277871,5.6517944
11:21:20.482,-0.17177173,1.262732,-9.747197,-0.7878144,-0.95692104,5.6307683
11:21:20.492,-0.037207276,1.2069943,-9.819181,-0.5845554,-0.87585133,5.5996084
11:21:20.502,-0.094297625,1.402789,-9.607259,-0.4560387,-1.0533386,5.570239
11:21:20.512,-0.15458363,1.2670504,-9.621496,-0.26746732,-0.968093,5.4715466
11:21:20.522,-0.07139736,1.2950305,-9.6337805,-0.1689565,-0.7562206,5.383511
11:21:20.532,-0.0054232813,1.3365523,-9.525638,-0.23488116,-0.9557379,5.27131
11:21:20.542,-0.11091912,1.2202547,-9.8708,-0.24384415,-0.8551683,5.0518427
11:21:20.552,-0.074617654,1.3060095,-9.58883,-0.24033634,-0.66698,4.898445
11:21:20.562,-0.09452729,1.1868633,-9.715367,-0.25871947,-0.5804083,4.7058544
11:21:20.572,-0.038739488,1.2266005,-9.695244,-0.25717983,-0.53347176,4.4660993
11:21:20.582,-0.08777784,1.3395556,-9.631388,-0.35476282,-0.44497046,4.218972
11:21:20.592,0.0017284343,1.0524567,-9.594361,-0.41776043,-0.3119149,3.9997466
11:21:20.602,-0.058944743,1.4410354,-9.787281,-0.43176052,-0.2288105,3.8406289
11:21:20.612,-0.06948813,1.2039782,-9.592203,-0.38153067,0.023485616,3.577711
11:21:20.622,-0.040642615,1.2609481,-9.705744,-0.3721498,0.21814391,3.3960023
11:21:20.632,-0.04116083,1.2582091,-9.720492,-0.46711543,0.20478813,3.2292116
11:21:20.642,-0.028988782,1.230282,-9.628566,-0.3888121,0.5183314,2.9993536
11:21:20.652,-0.085042566,1.2511228,-9.754496,-0.37632108,0.41982853,2.868564
11:21:20.662,-0.07419298,1.109352,-9.62044,-0.32904005,0.6682092,2.6738122
11:21:20.672,-0.03976893,1.2126856,-9.756813,-0.22052783,0.95853746,2.4619915
11:21:20.682,-0.121279344,1.1027777,-9.823709,-0.078633845,0.87210506,2.2867024
11:21:20.692,0.04474305,1.2158468,-9.622902,0.1309506,1.2738532,2.0653682
11:21:20.702,-0.1567476,1.1052959,-9.792608,0.3751393,1.2954743,1.873844
11:21:20.712,-0.06528793,1.1730951,-9.697971,0.575109,1.4056282,1.7704272
11:21:20.722,-0.095338866,1.1860045,-9.737414,0.77689546,1.5736463,1.5921607
11:21:20.732,-0.09963185,1.1474907,-9.73406,0.90802467,1.6215497,1.4580009
11:21:20.742,-0.06429628,1.1357511,-9.819355,1.1049442,1.7413869,1.3736807
11:21:20.752,-0.09063474,1.1148804,-9.725929,1.3374058,1.6934053,1.2860786
11:21:20.762,-0.118811466,1.0615741,-9.7579365,1.6143714,1.878971,1.1852144
11:21:20.772,-0.09656345,1.1035237,-9.681093,1.8767625,1.8359305,1.1276271
11:21:20.782,-0.1241834,1.1406773,-9.761708,2.137195,1.9241763,1.0651459
11:21:20.792,-0.056025792,1.0775658,-9.746161,2.4329357,2.0213041,1.0307071
11:21:20.802,-0.13893096,1.0285789,-9.739282,2.7392275,1.9320306,1.034121
11:21:20.812,-0.16524838,0.94008017,-9.828328,2.9692118,1.9804218,1.0332807
11:21:20.822,-0.08056436,1.005007,-9.616446,3.1395838,1.9201388,1.0095046
11:21:20.832,-0.1371554,1.0109099,-9.900694,3.258599,2.057694,1.0450419
11:21:20.842,-0.13668619,0.8658581,-10.081843,3.48509,1.8457063,1.0389023
11:21:20.852,-0.06800551,1.0715532,-9.520786,3.6146114,2.0909996,1.0179803
11:21:20.862,-0.24594727,0.6429152,-10.09622,3.722041,1.9894546,1.0526968
11:21:20.872,-0.028329864,1.0054799,-9.580131,3.8168957,1.8086264,1.0340285
11:21:20.882,-0.16707562,1.1008469,-9.743808,3.7917988,2.0494058,1.100401
11:21:20.892,-0.14790367,0.64479727,-9.849375,3.91352,1.6482537,1.0852207
11:21:20.902,-0.077404454,1.0694032,-9.698005,3.8074667,1.9512719,1.085962
11:21:20.912,-0.08297446,0.9155945,-9.593001,3.6013675,1.7115558,1.1165762
11:21:20.922,-0.1591335,0.9584755,-9.937622,3.4665196,1.7000976,1.1535403
11:21:20.932,-0.097714305,1.0690298,-9.525228,3.132104,1.6862773,1.1622784
11:21:20.942,-0.12931746,0.9191576,-9.769035,2.814101,1.8968719,1.2036602
11:21:20.952,-0.13743643,0.76590043,-9.798788,2.530148,1.5081112,1.2635174
11:21:20.962,-0.05314799,1.0185715,-9.635554,2.0380394,1.9487156,1.2622873
11:21:20.972,-0.0973897,0.8545437,-9.698233,1.7285031,1.56266,1.3922076
11:21:20.982,-0.05077871,0.8942566,-9.687673,1.4246974,1.8717682,1.4588552
11:21:20.992,-0.17918256,1.0345458,-9.847607,1.0410553,1.5957583,1.5573189
11:21:21.002,-0.060490932,0.8538584,-9.751798,0.8405965,1.7050968,1.6919961
11:21:21.012,-0.0057098647,0.92006785,-9.600784,0.45257568,1.770307,1.7794555
11:21:21.022,-0.17223777,0.94584984,-9.715239,0.12817127,1.5763713,1.9366597
11:21:21.032,-0.06821698,0.8870298,-9.763284,-0.04626757,1.6799893,2.115666
11:21:21.042,-0.061157566,1.1592437,-9.620221,-0.24726497,1.637247,2.183337
11:21:21.052,-0.03960906,0.86425376,-9.691761,-0.21551287,1.4740304,2.3851132
11:21:21.062,-0.059142586,0.9586923,-9.708127,-0.21516466,1.5406978,2.5258062
11:21:21.072,-0.08229514,0.93462086,-9.729778,-0.2181129,1.5482767,2.6489499
11:21:21.082,-0.06928631,0.9771412,-9.687516,-0.09824499,1.4006815,2.8313308
11:21:21.092,-0.04352639,1.0513698,-9.712183,-0.027791856,1.3565085,3.0042613
11:21:21.102,-0.07454158,1.0026876,-9.730541,0.18320373,1.3135388,3.1441138
11:21:21.112,-0.020837948,0.96769583,-9.71556,0.37391862,1.2074857,3.3410816
11:21:21.122,-0.018578451,0.8867295,-9.604466,0.52863336,1.121541,3.4940276
11:21:21.132,-0.10719668,1.0918517,-9.792239,0.6763233,0.8888211,3.6333113
11:21:21.142,-0.04313984,0.95692295,-9.932997,0.9263923,0.8709406,3.8270035
11:21:21.152,-0.043868683,1.0435061,-9.63481,1.1421733,0.75464606,3.9069102
11:21:21.162,-0.027710456,1.0303409,-9.736409,1.4553291,0.49549556,4.032168
11:21:21.172,-0.017223787,0.9056965,-9.748938,1.7638513,0.30712363,4.216305
11:21:21.182,-0.035134044,1.0796595,-9.7233515,2.019864,0.12688917,4.3003635
11:21:21.192,-0.008141092,0.9958772,-9.673841,2.328757,-0.104021385,4.3726535
11:21:21.202,-0.067104325,1.0995932,-9.794234,2.6754992,-0.28571472,4.4885535
11:21:21.212,0.022285927,0.97509027,-9.656977,3.021202,-0.5900843,4.544587
11:21:21.222,0.014971678,1.0562714,-9.653029,3.3185754,-0.6223613,4.589998
11:21:21.232,-0.02321872,1.0143695,-9.637395,3.7427502,-0.9525925,4.6546664
11:21:21.242,0.0069425777,1.0206552,-9.635225,4.128934,-1.2092069,4.6950884
11:21:21.252,-0.01937863,1.0186135,-9.699719,4.5393224,-1.2998463,4.6942177
11:21:21.262,0.00950367,1.0148038,-9.696698,4.982835,-1.5535113,4.6052094
11:21:21.272,-0.010308252,0.9393287,-9.624162,5.4297132,-1.7285569,4.5792646
11:21:21.282,0.016675243,0.9295414,-9.564066,5.8487897,-2.0359905,4.470589
11:21:21.292,0.021213429,1.084986,-9.693551,6.284449,-2.1848762,4.39027
11:21:21.302,-0.012329195,0.9038808,-9.684418,6.7734737,-2.2521183,4.2881694
11:21:21.312,0.048795298,1.0015182,-9.626482,7.2013044,-2.5601642,4.167955
11:21:21.322,0.077142894,0.8570008,-9.565365,7.597692,-2.6166863,4.008938
11:21:21.332,0.023456218,0.95452183,-9.806921,8.050081,-2.8427947,3.8849645
11:21:21.342,-0.0047168564,0.851724,-9.628111,8.592036,-2.8918397,3.726852
11:21:21.352,-0.001957736,0.8646437,-9.596285,9.176028,-2.985653,3.5206697
11:21:21.362,0.0045234296,0.7643571,-9.77257,9.710522,-3.0788698,3.3510628
11:21:21.372,0.03880723,0.79286414,-9.602881,10.297451,-3.1074276,3.118799
11:21:21.382,-0.016670806,0.82279956,-9.663938,10.874077,-3.233157,2.8942492
11:21:21.392,0.05002827,0.7348481,-9.6138,11.555263,-3.1071358,2.65964
11:21:21.402,-0.009575083,0.7326318,-9.697722,12.098012,-3.0706608,2.4539359
11:21:21.412,0.024544524,0.6166472,-9.630142,12.627096,-3.032998,2.2366996
11:21:21.422,-0.027991045,0.66778564,-9.715375,13.084613,-2.994276,1.9815866
11:21:21.432,-0.01750278,0.6186385,-9.736945,13.530483,-2.7907102,1.7567009
11:21:21.442,0.019799203,0.6506543,-9.788404,13.896226,-2.7167828,1.5618074
11:21:21.452,-0.03795589,0.5558863,-9.7039995,14.190388,-2.6163018,1.3900977
11:21:21.462,-0.08888089,0.57529265,-9.627132,14.4376745,-2.2887387,1.1748431
11:21:21.472,-0.10198558,0.45565608,-9.940352,14.60329,-2.3202682,1.0844263
11:21:21.482,0.009234978,0.47024754,-9.752443,14.793219,-2.0271268,0.839874
11:21:21.492,0.1008119,0.8881869,-9.835711,12.373079,-1.7865783,0.3009739
11:21:21.502,-0.024778653,0.39493138,-9.797636,10.454892,-1.5169435,-0.15463588
11:21:21.512,-0.105688184,0.35187462,-9.895864,9.847211,-1.3248622,-0.39033103
11:21:21.522,0.008409364,0.43277866,-9.818848,8.632608,-0.9600773,-0.661409
11:21:21.532,-0.08767019,0.43962067,-9.938075,7.7804174,-0.8418651,-0.7895956
11:21:21.542,-0.0074629053,0.4770244,-9.786578,7.353355,-0.66662383,-0.9372954
11:21:21.552,-0.052204996,0.4887776,-10.017196,6.428341,-0.37029296,-1.0506326
11:21:21.562,-0.12599766,0.29168507,-9.845632,5.9275794,-0.29682398,-1.1050878
11:21:21.572,-0.073626705,0.2876963,-9.95033,5.512521,0.08623259,-1.1212931
11:21:21.582,-0.08038829,0.28495142,-9.862813,5.1129813,0.32518387,-1.1307592
11:21:21.592,-0.020011218,0.38709468,-9.951985,4.8177314,0.52268094,-1.0444044
11:21:21.602,-0.08961357,0.28046557,-9.937345,4.594437,0.79238856,-0.9677074
11:21:21.612,-0.07836975,0.3102158,-9.977553,4.4810843,0.9961162,-0.7390253
11:21:21.622,-0.047257576,0.28946042,-9.988702,4.2874107,1.1921524,-0.6153855
11:21:21.632,-0.086139336,0.32027864,-9.943072,4.0795083,1.378782,-0.4875583
11:21:21.642,-0.056899123,0.34317607,-10.012345,3.809087,1.594173,-0.34464383
11:21:21.652,-0.075465046,0.33150443,-9.920528,3.4696603,1.7127994,-0.186358
11:21:21.662,-0.08206463,0.32996616,-10.017138,3.1211836,1.9163553,-0.06879841
11:21:21.672,-0.07093954,0.35301068,-9.976823,2.7823884,2.0303586,0.120668404
11:21:21.682,-0.09583558,0.3179232,-9.9639435,2.4110496,2.1185837,0.24918264
11:21:21.692,-0.038569614,0.36320522,-9.9011,2.092305,2.1757164,0.38139826
11:21:21.702,-0.10330605,0.31377113,-9.959512,1.7534456,2.2899716,0.5569779
11:21:21.712,-0.123650394,0.35329568,-9.9508295,1.3891356,2.2815883,0.6826559
11:21:21.722,-0.054960348,0.33121428,-9.873019,0.979527,2.2633355,0.84372145
11:21:21.732,-0.14026855,0.35239148,-10.011498,0.4649614,2.2962089,0.9712104
11:21:21.742,-0.03414221,0.4147775,-9.846182,-0.08660939,1.9891031,1.1450667
11:21:21.752,-0.0471993,0.3679288,-9.794148,-0.6309443,2.4401238,1.2143064
11:21:21.762,-0.046157565,0.3413261,-9.522401,-1.1430427,1.9902577,1.3555611
11:21:21.772,-0.08121166,0.37011334,-10.3224125,-1.6166807,1.9993943,1.4176127
11:21:21.782,-0.0804721,0.5041408,-9.556857,-2.0148845,1.6869955,1.5016774
11:21:21.792,-0.15138207,0.38778335,-9.957669,-2.410538,1.7331607,1.5245786
11:21:21.802,-0.038574196,0.32548162,-9.649205,-2.7447658,1.6450878,1.5576867
11:21:21.812,-0.041172262,0.44400328,-9.757914,-3.213993,1.3549901,1.5811328
11:21:21.822,-0.048748843,0.23545781,-9.623754,-3.8683743,1.2475519,1.568109
11:21:21.832,-0.053448964,0.51204914,-9.704146,-4.175067,1.0192579,1.540436
11:21:21.842,-0.09467959,0.43907726,-9.954518,-4.458078,0.789772,1.4990599
11:21:21.852,-0.055820808,0.49267584,-9.619964,-4.871132,0.65478015,1.3712627
11:21:21.862,-0.08744463,0.35606614,-9.633237,-5.1471562,0.47920272,1.3363912
11:21:21.872,-0.043098185,0.5274202,-9.779338,-5.3592396,0.11969976,1.267826
11:21:21.882,-0.07819523,0.4755871,-9.695094,-5.5566607,-0.03810639,1.1788753
11:21:21.892,-0.01961892,0.44796035,-9.709533,-5.7819343,-0.23957413,1.1205146
11:21:21.902,-0.0829436,0.44921884,-9.650959,-5.900524,-0.62807953,1.0387973
11:21:21.912,-0.09229532,0.50607467,-9.649541,-6.0389323,-0.6815659,0.889325
11:21:21.922,-0.09510588,0.4906838,-9.895639,-6.148769,-0.83564353,0.7591761
11:21:21.932,0.03264845,0.42791095,-9.46691,-6.2158875,-1.0110853,0.80027646
11:21:21.942,-0.03506873,0.6775579,-9.883785,-6.299736,-1.3472831,0.6226944
11:21:21.952,-0.14049286,0.33060488,-9.736184,-6.1441927,-1.4914562,0.49195966
11:21:21.962,-0.04912655,0.4908412,-9.572998,-5.953062,-1.6989133,0.41714683
11:21:21.972,-0.06648765,0.59235257,-9.751679,-5.896157,-1.9184424,0.28104374
11:21:21.982,-0.11266261,0.39989358,-9.728787,-5.5574365,-1.9012765,0.23239365
11:21:21.992,-0.049589504,0.61463094,-9.76725,-5.3579755,-2.176179,0.088486165
11:21:22.002,-0.08620108,0.3948551,-9.659522,-5.0830545,-2.1113446,-0.002527115
11:21:22.012,-0.11281768,0.52482605,-9.621757,-4.733221,-2.2836003,-0.057513677
11:21:22.022,-0.09104712,0.5203167,-9.735651,-4.587505,-2.374245,-0.17217767
11:21:22.032,-0.1000657,0.42965737,-9.78924,-4.323449,-2.3045776,-0.22102942
11:21:22.042,-0.091252066,0.68848807,-9.75301,-4.1831474,-2.667293,-0.26639706
11:21:22.052,-0.10724186,0.3841583,-9.700361,-4.0364795,-2.409898,-0.31206542
11:21:22.062,-0.08752424,0.5121198,-9.62422,-3.8950026,-2.5440097,-0.37791345
11:21:22.072,-0.07376296,0.565091,-9.732804,-3.8846314,-2.6148767,-0.45468774
11:21:22.082,-0.17007884,0.5953429,-9.778174,-3.8192732,-2.6456873,-0.47242025
11:21:22.092,-0.12636642,0.49792916,-9.595109,-3.7648926,-2.591223,-0.5013697
11:21:22.102,-0.112390876,0.4576183,-9.713463,-3.8121421,-2.6030424,-0.49234715
11:21:22.112,-0.018248513,0.72950923,-9.672811,-3.9096558,-2.6805065,-0.4972798
11:21:22.122,-0.16679952,0.46443138,-9.714882,-3.9203124,-2.4394279,-0.49113995
11:21:22.132,-0.12371546,0.5735485,-9.842148,-4.0157113,-2.5127232,-0.37891158
11:21:22.142,-0.07250281,0.63447815,-9.57287,-4.2482853,-2.8355422,-0.33519477
11:21:22.152,-0.124498315,0.68497527,-9.856591,-4.356934,-2.3129015,-0.37334338
11:21:22.162,-0.11077374,0.65353847,-9.739755,-4.45167,-2.5910223,-0.29071167
11:21:22.172,-0.12039166,0.5311602,-9.853181,-4.4950852,-2.422449,-0.29215574
11:21:22.182,-0.14261691,0.63810414,-9.675774,-4.7217445,-2.4999485,-0.22652648
11:21:22.192,-0.19665116,0.87347823,-10.011914,-4.898531,-2.3797543,-0.19875553
11:21:22.202,-0.11385984,0.52965796,-9.7774515,-4.9386334,-2.1539423,-0.12424133
11:21:22.212,-0.104422644,0.49145603,-9.764083,-5.1766663,-2.276848,-0.046976823
11:21:22.222,-0.07924593,0.72753006,-9.808199,-5.476939,-2.292024,-0.0015998848
11:21:22.232,-0.123242036,0.66598284,-9.86817,-5.617626,-1.9532303,-0.016748987
11:21:22.242,-0.10366297,0.7593869,-9.725655,-5.949446,-2.02513,0.14003414
11:21:22.252,-0.10449909,0.6136588,-9.830541,-6.2898345,-1.9359882,0.12948489
11:21:22.262,-0.053190183,0.67273104,-9.7705965,-6.4223294,-1.8551621,0.16093302
11:21:22.272,-0.09758461,0.6624583,-9.832053,-6.601852,-1.8129094,0.18111184
11:21:22.282,-0.08293189,0.7083751,-9.786539,-6.72814,-1.7025741,0.16955753
11:21:22.292,-0.10985803,0.74028915,-9.765397,-6.837308,-1.6213318,0.1429424
11:21:22.302,-0.11601426,0.6728825,-9.826927,-7.001044,-1.5649616,0.17833747
11:21:22.312,-0.120833784,0.6562317,-9.770501,-7.1672807,-1.5255598,0.11880378
11:21:22.322,-0.08139075,0.81501156,-9.832115,-7.445006,-1.4826853,0.07102179
11:21:22.332,-0.11021042,0.67606854,-9.781097,-7.695823,-1.2812662,0.010641418
11:21:22.342,-0.10495705,0.71995264,-9.752191,-8.003414,-1.379689,0.057469167
11:21:22.352,-0.13092408,0.71052724,-9.950488,-8.334942,-1.2426273,-0.018915439
11:21:22.362,-0.13758503,0.77584076,-9.780068,-8.562262,-1.3729084,-0.09974065
11:21:22.372,-0.1170516,0.7479326,-9.690681,-8.779553,-1.1162664,-0.24724743
11:21:22.382,-0.1464857,0.7364465,-9.821771,-8.989407,-1.139414,-0.2649978
11:21:22.392,-0.12452019,0.94892097,-9.910689,-9.16135,-1.231388,-0.2967414
11:21:22.402,-0.05626534,0.69440615,-9.695043,-9.247525,-0.82586616,-0.4243876
11:21:22.412,-0.17982751,0.83671606,-9.988442,-9.290547,-0.97648114,-0.49053314
11:21:22.422,-0.0412082,0.84201705,-9.668793,-9.27667,-0.85599285,-0.5479615
11:21:22.432,-0.12275575,0.97568583,-9.798546,-9.162384,-0.7334592,-0.5657298
11:21:22.442,-0.15906371,1.0001072,-10.00197,-9.022497,-0.8039535,-0.6014127
11:21:22.452,-0.12235294,0.9010831,-9.694622,-8.802539,-0.40795672,-0.67128325
11:21:22.462,-0.15700784,0.96247125,-9.846141,-8.630314,-0.6048058,-0.6300781
11:21:22.472,-0.10958306,0.92763686,-9.812185,-8.265793,-0.39891675,-0.70944893
11:21:22.482,-0.1869335,1.0764421,-9.788172,-7.9374714,-0.27936643,-0.72620386
11:21:22.492,-0.08373428,0.95200026,-9.809204,-7.5688624,-0.17633423,-0.71801186
11:21:22.502,-0.12816922,1.0855937,-9.810393,-7.098032,-0.07577709,-0.7438096
11:21:22.512,-0.21225503,0.9999535,-9.907257,-6.7132535,0.13058792,-0.74774235
11:21:22.522,-0.14239678,1.0731899,-9.739277,-6.253801,-0.04106902,-0.7612185
11:21:22.532,-0.16723074,1.1285192,-9.834466,-5.8800044,0.22397342,-0.7463684
11:21:22.542,-0.13514574,0.9496056,-9.853685,-4.237834,0.21411532,-0.5128255
11:21:22.552,-0.14245422,1.1230825,-9.674518,-3.1205826,0.22775093,-0.4062592
11:21:22.562,-0.19287671,1.0494058,-9.744269,-2.8489249,0.2262728,-0.41663674
11:21:22.572,-0.18394107,1.1507497,-9.810675,-2.374863,0.36153114,-0.4478374
11:21:22.582,-0.19242351,0.970209,-9.757308,-1.6877577,0.3890105,-0.30995378
11:21:22.592,-0.12348052,1.2300371,-9.80577,-1.1923697,0.38076514,-0.20264582
11:21:22.602,-0.21830581,1.0436987,-9.808508,-0.78789926,0.45236602,-0.16015473
11:21:22.612,-0.22184837,1.094897,-9.790572,-0.47192767,0.594641,-0.13177711
11:21:22.622,-0.16534665,1.142149,-9.685724,-0.25538814,0.4321307,-0.039869744
11:21:22.632,-0.19314897,1.1812767,-9.851101,0.007333377,0.66620296,-0.010787763
11:21:22.642,-0.21478485,1.1257595,-9.987492,0.27472872,0.6898561,0.114567414
11:21:22.652,-0.13949014,1.120483,-9.4740505,0.56622314,0.5767151,0.14850019
11:21:22.662,-0.30781397,1.0977523,-9.997097,0.8565565,0.7381717,0.19127831
11:21:22.672,-0.12475112,1.1818078,-9.581491,1.1772374,0.57211375,0.28680146
11:21:22.682,-0.21456745,1.1807401,-9.702305,1.4471903,0.51597285,0.32710442
11:21:22.692,-0.16680692,1.0960411,-9.849193,1.8721813,0.5131974,0.4446822
11:21:22.702,-0.15086706,1.2073233,-9.550117,2.2921884,0.366067,0.5684059
11:21:22.712,-0.19983798,1.0379933,-9.726179,2.6817062,0.490928,0.56257796
11:21:22.722,-0.2513219,1.2261916,-9.706478,2.949415,0.36908555,0.60683703
11:21:22.732,-0.16426644,1.09665,-9.534619,3.2965007,0.39336097,0.6169038
11:21:22.742,-0.27831817,1.0961683,-10.024378,3.7111702,0.36949217,0.64438206
11:21:22.752,-0.13346174,1.004867,-9.3523855,4.0371923,0.4001375,0.5902611
11:21:22.762,-0.24703786,0.99463534,-9.921219,4.2417207,0.3326238,0.595083
11:21:22.772,-0.15594406,1.1344116,-9.6959,4.348536,0.20178342,0.49673086
11:21:22.782,-0.20002417,1.1334107,-9.612699,4.3702297,0.3403352,0.5005096
11:21:22.792,-0.30952784,0.84583575,-10.037503,4.398091,0.20994413,0.3999706
11:21:22.802,-0.20167802,1.0766344,-9.543824,4.341511,-0.057405327,0.36458597
11:21:22.812,-0.28262082,1.0705141,-9.65536,4.392274,0.16485614,0.2722416
11:21:22.822,-0.024733206,0.8411573,-9.465315,4.4499884,0.19316436,0.19324133
11:21:22.832,-0.24549639,1.2902524,-9.583135,4.3136954,-0.12502627,0.11700902
11:21:22.842,-0.19623376,1.0709263,-9.86406,4.3755965,0.26779634,0.050040267
11:21:22.852,-0.29864094,0.9132927,-9.55757,4.6398,-0.3160514,-0.05291045
11:21:22.862,-0.013950089,1.1008327,-9.330171,4.923036,0.6215369,-0.1906397
11:21:22.872,-0.41657352,0.95186746,-9.969328,5.068824,-0.22672507,-0.36785778
11:21:22.882,-0.12574734,0.8968024,-9.787153,5.391517,0.4738135,-0.3591552
11:21:22.892,-0.14032985,1.0052373,-9.5092535,5.6685524,0.26461837,-0.45356992
11:21:22.902,-0.16786356,0.80235964,-9.624605,5.994348,0.4650339,-0.5784408
11:21:22.912,-0.21612917,0.943942,-9.877517,6.488291,0.41227084,-0.631134
11:21:22.922,-0.12655717,0.9817003,-9.479127,6.9474115,0.38486075,-0.6539626
11:21:22.932,-0.20167781,1.0228491,-9.494262,7.6114364,0.60413706,-0.8186954
11:21:22.942,-0.29312027,0.87778735,-9.942252,8.177016,0.55277056,-0.75269157
11:21:22.952,-0.034508955,0.9207822,-9.468483,8.722284,0.580556,-0.82209337
11:21:22.962,-0.2238149,0.8479811,-9.918918,9.233519,0.69341725,-0.8595411
11:21:22.972,-0.17059354,0.6675325,-9.488601,9.982575,0.34805477,-0.890219
11:21:22.982,-0.14014332,0.9020945,-9.639183,10.52878,0.87205154,-0.991217
11:21:22.992,-0.13733089,0.83603233,-9.562724,11.009562,0.49931312,-1.0135473
11:21:23.002,-0.17670637,0.76001495,-9.795873,11.489709,0.7396663,-1.0266806
11:21:23.012,-0.1289578,0.7059393,-9.695512,11.853831,0.56701165,-1.057618
11:21:23.022,-0.1508514,0.65104806,-9.758464,12.33794,0.58162105,-1.0884086
11:21:23.032,-0.15721865,0.7578472,-9.652695,12.791248,0.513739,-1.0198568
11:21:23.042,-0.14629051,0.6741397,-9.727713,13.087848,0.52164716,-1.0817175
11:21:23.052,-0.16406795,0.7329086,-9.741811,13.462732,0.49732035,-1.0409402
11:21:23.062,-0.10279967,0.6211803,-9.778086,13.820471,0.4107927,-1.0393248
11:21:23.072,-0.14811666,0.63089526,-9.741596,14.042989,0.2852571,-1.0628873
11:21:23.082,-0.09533778,0.6377985,-9.579408,14.31296,0.15481901,-1.0395159
11:21:23.092,-0.096387856,0.66733265,-9.827364,14.589866,0.22144254,-1.0270308
11:21:23.102,-0.14744996,0.5517329,-9.732299,14.629063,0.016703416,-1.0698167
11:21:23.112,-0.1002033,0.65280795,-9.679179,14.590301,-0.08947306,-1.062325
11:21:23.122,-0.13348578,0.4171488,-9.858715,14.453853,-0.08021445,-1.0717648
11:21:23.132,-0.12822777,0.57972884,-9.757738,14.233748,-0.2412333,-1.1256237
11:21:23.142,-0.1183308,0.40096766,-9.736843,13.985495,-0.44325286,-1.1496937
11:21:23.152,-0.07919038,0.49615368,-9.759766,13.804287,-0.43307033,-1.1533794
11:21:23.162,-0.10375327,0.5893457,-9.878636,13.282717,-0.3756702,-1.3046973
11:21:23.172,-0.0875861,0.27585492,-9.813096,12.84278,-0.657041,-1.3401552
11:21:23.182,-0.09721534,0.5025381,-9.830061,12.348339,-0.6602801,-1.4260805
11:21:23.192,-0.04825468,0.2971026,-9.756664,11.71772,-0.754716,-1.5706183
11:21:23.202,-0.14733747,0.45774224,-10.004277,11.074891,-0.84697694,-1.5976835
11:21:23.212,-0.08686894,0.15690318,-9.674139,10.473806,-0.9291061,-1.7677164
11:21:23.222,0.007629771,0.3268067,-9.804264,9.684583,-0.7911783,-1.8624125
11:21:23.232,-0.15788876,0.42015007,-9.70547,8.977106,-1.0610617,-2.0201402
11:21:23.242,-0.12658834,0.14232554,-10.003823,8.39032,-0.97515625,-2.0269349
11:21:23.252,-0.05688846,0.38362396,-9.793441,7.7761607,-1.1883959,-2.1509492
11:21:23.262,-0.050346896,0.07469589,-9.726128,7.2990527,-0.9465388,-2.1967103
11:21:23.272,-0.10272639,0.09404683,-9.890771,7.004646,-1.0944909,-2.2519162
11:21:23.282,-0.010384461,0.059150018,-9.816846,6.520344,-0.85740924,-2.342383
11:21:23.292,-0.09107224,0.18394502,-9.887912,6.2012305,-0.95553935,-2.3888156
11:21:23.302,-0.13200943,0.1025781,-9.825534,5.938067,-0.9122302,-2.3887272
11:21:23.312,-0.13046399,-0.017249053,-9.8626585,5.6375914,-0.8576705,-2.3395286
11:21:23.322,-0.09160919,0.020733215,-9.870197,5.390725,-0.7582227,-2.3606126
11:21:23.332,-0.12127298,-0.013866121,-10.035999,5.507201,-0.73365974,-2.318552
11:21:23.342,-0.09117583,0.046267908,-9.787275,5.5598288,-0.7779718,-2.2513113
11:21:23.352,-0.17740251,0.024209887,-9.965112,5.57917,-0.60293263,-2.2641032
11:21:23.362,-0.13716753,-0.03810884,-9.935964,5.739827,-0.5990259,-2.1793828
11:21:23.372,-0.19242977,-0.065942675,-9.938391,5.9400034,-0.39403534,-2.1025798
11:21:23.382,-0.17532055,-0.196394,-9.918269,6.143435,-0.3125244,-2.0578697
11:21:23.392,-0.16978276,-0.11281206,-9.937822,6.7438283,-0.18303947,-1.8898033
11:21:23.402,-0.21496175,-0.16588725,-10.004938,7.141397,-0.018871218,-1.7166754
11:21:23.412,-0.20725934,-0.10521259,-10.070929,7.3213067,0.07382035,-1.6333747
11:21:23.422,-0.17920986,-0.23130009,-9.972615,7.753076,0.20661676,-1.4865183
11:21:23.432,-0.18408942,-0.15812674,-10.083504,8.40105,0.48318052,-1.3146094
11:21:23.442,-0.23629214,-0.14980891,-10.010503,8.9297085,0.2938978,-1.2262408
11:21:23.452,-0.18749693,-0.27729675,-9.903465,9.638081,0.77400184,-1.0258548
11:21:23.462,-0.17116833,0.09943468,-10.054161,10.178447,0.5981261,-0.87565315
11:21:23.472,-0.18989335,-0.3822437,-9.940863,10.775109,0.8372848,-0.7385098
11:21:23.482,-0.2259689,-0.13431902,-10.026677,11.350416,0.88904554,-0.5947733
11:21:23.492,-0.14592828,-0.23114769,-9.951321,11.819426,1.1368535,-0.42761335
11:21:23.502,-0.19852068,-0.07030185,-10.011202,12.319631,1.11893,-0.29221717
11:21:23.512,-0.13931009,-0.14919269,-9.890291,12.613246,1.3417579,-0.11739306
11:21:23.522,-0.2517686,-0.34985697,-10.045068,12.9031925,1.3324888,0.015823476
11:21:23.532,-0.19931616,-0.124391235,-10.016473,13.092018,1.4903632,0.09220854
11:21:23.542,-0.2391953,-0.2662737,-9.945546,13.2171135,1.4718035,0.23125726
11:21:23.552,-0.20513307,-0.28409615,-10.033902,13.246279,1.6648386,0.38301376
11:21:23.562,-0.16878398,-0.12569706,-9.86529,13.126307,1.513418,0.49736115
11:21:23.572,-0.24072786,-0.40906096,-9.991834,13.263405,1.7545391,0.6456976
11:21:23.582,-0.23951514,-0.28065568,-9.929432,14.106081,1.6650673,0.88884115
11:21:23.592,-0.12856586,-0.21323131,-9.85138,14.139377,1.817318,1.0778544
11:21:23.602,-0.24559784,-0.24929188,-9.947065,13.68226,1.6414715,1.2019751
11:21:23.612,-0.1707703,-0.24346556,-9.848083,13.564257,1.7040161,1.35653
11:21:23.622,-0.18412235,-0.46252683,-9.835213,13.459305,1.7489907,1.4586415
11:21:23.632,-0.17229055,-0.2462356,-9.954714,13.017165,1.702544,1.5382428
11:21:23.642,-0.17873605,-0.29657796,-9.682577,12.510661,1.4327085,1.5444072
11:21:23.652,-0.15281324,-0.3437173,-9.823719,12.200673,1.7646408,1.6372522
11:21:23.662,-0.16040316,-0.27506888,-9.73491,11.881505,1.1925704,1.7179061
11:21:23.672,-0.19022298,-0.54542494,-9.728176,11.652866,1.2239734,1.7880406
11:21:23.682,-0.2188948,-0.44988063,-9.67543,11.3517065,1.0522714,1.7879283
11:21:23.692,-0.13506883,-0.49339813,-9.60512,11.1952505,1.0352768,1.8564364
11:21:23.702,-0.21243683,-0.3637277,-9.7419405,11.11195,0.8388538,1.8880415
11:21:23.712,-0.1262977,-0.5224012,-9.585293,11.071682,0.7526087,1.9836704
11:21:23.722,-0.17451628,-0.4637823,-9.629126,11.02232,0.6952481,1.9622067
11:21:23.732,-0.17251164,-0.56669295,-9.65604,11.073249,0.4623617,1.9850558
11:21:23.742,-0.1335015,-0.5663066,-9.434169,11.147022,0.42080626,2.0459464
11:21:23.752,-0.2060927,-0.4831884,-9.664694,11.239142,0.3165394,2.0551538
11:21:23.762,-0.112059504,-0.5026818,-9.504828,11.351451,0.050306022,2.091453
11:21:23.772,-0.14555931,-0.5962183,-9.568837,11.488066,-0.124061204,2.2001693
11:21:23.782,-0.16274111,-0.58836216,-9.52385,11.756842,-0.1960442,2.155993
11:21:23.792,-0.17643195,-0.67949617,-9.48377,11.990082,-0.45574498,2.089527
11:21:23.802,-0.15259801,-0.57407117,-9.476544,12.390423,-0.45256126,2.0915124
11:21:23.812,-0.12148451,-0.6328791,-9.408511,12.6924925,-0.6613936,2.1354775
11:21:23.822,-0.15814221,-0.75140905,-9.474609,13.079137,-0.85282445,2.1089735
11:21:23.832,-0.1526157,-0.78526306,-9.549485,13.52246,-1.0155857,2.0297365
11:21:23.842,-0.14518523,-0.7683321,-9.28305,13.876652,-1.2435465,1.9235622
11:21:23.852,-0.14814514,-0.7330262,-9.425909,14.410614,-1.2275082,1.8520346
11:21:23.862,-0.060451858,-0.72224945,-9.374303,14.835082,-1.4030547,1.774
11:21:23.872,-0.18963204,-0.95866555,-9.598902,15.271761,-1.6821997,1.6900696
11:21:23.882,-0.071532495,-0.84050494,-9.384368,15.631529,-1.455761,1.5164676
11:21:23.892,-0.25874418,-0.91328883,-9.524941,15.895185,-1.9453144,1.3786235
11:21:23.902,-0.088563666,-1.1007743,-9.568749,16.31799,-1.3298343,1.2044264
11:21:23.912,-0.22246602,-0.8047425,-9.625097,16.386269,-1.9055675,1.1151307
11:21:23.922,-0.13682738,-0.97222644,-9.373982,16.581688,-1.6051264,0.924132
11:21:23.932,-0.13138016,-1.2291636,-9.255332,16.817408,-2.2094421,0.7099812
11:21:23.942,-0.04269495,-1.0713757,-9.590209,16.836626,-1.3124472,0.54126084
11:21:23.952,-0.097418815,-1.0728775,-9.57081,16.85966,-2.2206838,0.38272265
11:21:23.962,-0.22896628,-0.880196,-9.446484,16.83908,-2.080691,0.19567351
11:21:23.972,-0.18442978,-1.1710309,-9.503778,16.723978,-1.5320886,0.043348256
11:21:23.982,-0.18120591,-1.464737,-9.812556,16.417162,-1.8150253,-0.14399643
11:21:23.992,0.019042157,-1.2690605,-9.208055,15.898805,-1.2514831,-0.28395775
11:21:24.002,-0.25676602,-1.4986112,-9.838812,15.496362,-1.3755339,-0.42560786
11:21:24.012,-0.15399438,-1.1295757,-9.696611,14.948427,-1.3787812,-0.54903626
11:21:24.022,-0.15266529,-1.2032748,-9.496687,14.184525,-1.018159,-0.6538596
11:21:24.032,-0.21548183,-1.6341676,-9.648728,13.620867,-1.2628369,-0.7227859
11:21:24.042,-0.04816273,-1.4226298,-9.465804,12.886066,-0.52277774,-0.8626297
11:21:24.052,-0.14736867,-1.324546,-9.417817,12.108743,-0.98787963,-0.9115988
11:21:24.062,-0.1355346,-1.4977456,-9.856045,11.509467,-0.08728254,-0.97933155
11:21:24.072,-0.084810615,-1.5218858,-9.513223,10.980122,-0.27725843,-0.9691577
11:21:24.082,-0.21733703,-1.244733,-9.836477,10.51576,-0.046099734,-0.96148723
11:21:24.092,-0.21165979,-1.4823416,-9.691155,9.983114,0.3210179,-0.97855383
11:21:24.102,-0.197346,-1.6994841,-9.616258,9.51312,0.45710143,-0.99798405
11:21:24.112,-0.11135966,-1.4984754,-9.677068,8.8874035,0.7172103,-0.9478137
11:21:24.122,-0.19096312,-1.3225367,-9.728032,8.338298,0.76427513,-0.88228005
11:21:24.132,-0.22907063,-1.4916607,-9.829615,8.064038,1.0072187,-0.8684963
11:21:24.142,-0.16823882,-1.6036738,-9.731356,7.545923,1.3259474,-0.7921187
11:21:24.152,-0.17478687,-1.3947885,-9.828909,6.934163,1.3579154,-0.72734857
11:21:24.162,-0.16151382,-1.6069373,-9.752982,6.476375,1.7154846,-0.64399767
11:21:24.172,-0.2042893,-1.5138081,-9.873349,5.9640737,1.8091781,-0.5649458
11:21:24.182,-0.18099567,-1.5249759,-9.746411,5.434468,1.9261935,-0.48841718
11:21:24.192,-0.23327565,-1.5024819,-9.798368,5.0976357,2.0965848,-0.33247316
11:21:24.202,-0.19808117,-1.493008,-9.858088,4.528581,2.2226892,-0.23066081
11:21:24.212,-0.20806026,-1.5516661,-9.867597,3.874264,2.3683486,-0.11000376
11:21:24.222,-0.19205563,-1.590844,-9.853492,3.3817523,2.364377,0.040791277
11:21:24.232,-0.18740204,-1.4645991,-9.810913,2.7687297,2.3784702,0.1189075
11:21:24.242,-0.18292706,-1.4673764,-9.968116,2.217805,2.550106,0.24464858
11:21:24.252,-0.19104417,-1.4356945,-9.785098,1.6381671,2.6129825,0.36956963
11:21:24.262,-0.18464766,-1.4657352,-9.7972555,0.98034614,2.6370606,0.48603845
11:21:24.272,-0.19346483,-1.5941205,-9.879452,0.4394254,2.6462884,0.6021956
11:21:24.282,-0.17337565,-1.4992659,-10.026385,-0.1674369,2.6040761,0.72456765
11:21:24.292,-0.120188355,-1.4179939,-9.62868,-0.8321841,2.4506092,0.80975276
11:21:24.302,-0.29545042,-1.4473433,-10.013684,-1.4157661,2.7091386,0.89397275
11:21:24.312,-0.12893017,-1.5214891,-9.661802,-2.0725784,2.3076146,0.9519733
11:21:24.322,-0.20518902,-1.4278017,-10.008736,-2.8052957,2.4830623,0.986728
11:21:24.332,-0.18263036,-1.3608422,-9.906796,-3.3499475,2.0130877,1.0505477
11:21:24.342,-0.12956136,-1.4133946,-9.688089,-3.760223,2.0500975,1.0743743
11:21:24.352,-0.17883259,-1.3189859,-9.802241,-4.321771,1.8980782,1.0674638
11:21:24.362,-0.20827192,-1.4915532,-9.771566,-4.783999,1.6671606,1.0866699
11:21:24.372,-0.12953661,-1.3202071,-9.710816,-5.266568,1.5337214,1.1436232
11:21:24.382,-0.14743036,-1.2636153,-9.959202,-5.782063,1.326878,1.1232704
11:21:24.392,-0.23543401,-1.4775971,-9.761247,-6.1173325,1.0402521,1.1558468
11:21:24.402,-0.083856925,-1.1583906,-9.535365,-6.6477103,1.0281233,1.1276804
11:21:24.412,-0.22004697,-1.3710549,-9.8854065,-7.1076326,0.9743288,1.0347439
11:21:24.422,-0.10152062,-1.2375687,-9.754133,-7.517132,0.5262976,1.0954137
11:21:24.432,-0.11742446,-1.4126769,-9.781679,-7.9283767,0.47861916,0.9992183
11:21:24.442,-0.1508662,-1.4719042,-9.740477,-7.6912317,0.38485244,1.0584258
11:21:24.452,-0.15028897,-1.2554954,-9.73605,-7.163825,-0.029731851,1.1690534
11:21:24.462,-0.17899501,-1.3094628,-9.754844,-7.602012,0.062180888,1.0821131
11:21:24.472,-0.17190036,-1.1620882,-9.7812605,-7.956163,-0.36331123,1.109319
11:21:24.482,-0.033905562,-1.3843949,-9.706635,-8.077867,-0.29566708,1.1282645
11:21:24.492,-0.20592694,-1.4975021,-9.84985,-8.412605,-0.6599265,1.0455016
11:21:24.502,-0.09648056,-1.2261308,-9.654495,-8.987705,-0.62443584,0.9978842
11:21:24.512,-0.1992811,-1.302959,-9.778299,-9.515022,-0.9399109,0.98114765
11:21:24.522,-0.11536967,-0.97828954,-9.77938,-10.07333,-0.81026846,0.96268535
11:21:24.532,-0.077452265,-1.2454321,-9.521455,-10.773236,-1.1187544,0.9407662
11:21:24.542,-0.20119365,-1.4110844,-10.058514,-11.355249,-1.2580388,0.9639288
11:21:24.552,-0.045695268,-1.0539585,-9.521577,-12.044223,-1.2943324,0.8855296
11:21:24.562,-0.18503626,-1.2511098,-9.806146,-12.635172,-1.1314574,0.9162915
11:21:24.572,-0.07161686,-1.1029768,-9.738046,-13.416366,-1.5332552,0.9280614
11:21:24.582,-0.20777048,-1.111955,-9.911025,-14.184214,-1.4653926,0.92739207
11:21:24.592,-0.099671565,-1.2780534,-9.640618,-14.719756,-1.5365322,0.9435404
11:21:24.602,-0.22154139,-1.1948353,-9.842536,-15.337374,-1.4304847,0.90002286
11:21:24.612,-0.18200354,-1.1363173,-9.672939,-15.928846,-1.6929244,0.9682695
11:21:24.622,-0.1889469,-1.0878947,-9.730783,-16.215048,-1.4039387,0.9843096
11:21:24.632,-0.14655298,-1.0402395,-9.943935,-16.742384,-1.418221,1.037031
11:21:24.642,-0.1641558,-1.2560967,-9.614221,-17.246096,-1.5679206,1.07633
11:21:24.652,-0.18481646,-1.0974398,-9.644169,-17.593908,-1.295505,1.0712996
11:21:24.662,-0.17163073,-1.2080973,-9.813031,-18.012686,-1.2614514,1.1074181
11:21:24.672,-0.1521037,-0.8272262,-9.7717705,-18.462301,-1.4607104,1.1853465
11:21:24.682,-0.119644865,-1.1864445,-9.521359,-18.796583,-1.0884639,1.2193613
11:21:24.692,-0.23460007,-1.174805,-9.810552,-19.06745,-1.2166973,1.284619
11:21:24.702,-0.108407296,-0.84550166,-9.393545,-19.445194,-1.1320558,1.3289038
11:21:24.712,-0.27167642,-1.1246738,-9.914768,-19.643183,-0.800412,1.3637403
11:21:24.722,-0.15427276,-0.804866,-9.716973,-19.815971,-0.73301476,1.4853266
11:21:24.732,-0.17065792,-1.1155705,-9.470627,-19.970064,-0.82668567,1.5199447
11:21:24.742,-0.14914389,-0.9711946,-10.009154,-19.982159,-0.3125299,1.5512725
11:21:24.752,-0.11735158,-0.5716312,-9.661472,-20.111639,-0.3255354,1.6134629
11:21:24.762,-0.27814874,-0.9185513,-9.860863,-20.125702,-0.39351398,1.68151
11:21:24.772,-0.19045518,-0.81741583,-10.104302,-20.084671,0.24855398,1.761106
11:21:24.782,-0.1185693,-0.6569069,-9.625504,-20.234081,-0.16286862,1.9257205
11:21:24.792,-0.21160911,-0.8856951,-9.861212,-20.131191,0.22805546,1.9770421
11:21:24.802,-0.21260504,-0.596248,-9.855623,-20.177267,0.20700864,2.0230513
11:21:24.812,-0.041178305,-0.77694744,-9.677637,-20.257366,0.55013764,2.1478412
11:21:24.822,-0.09285852,-0.39633507,-9.644454,-20.31334,0.3681517,2.2794905
11:21:24.832,-0.16261415,-0.5510588,-10.037951,-20.308176,0.6471233,2.277859
11:21:24.842,-0.16511473,-0.73971915,-9.704327,-20.184666,0.4612969,2.4181793
11:21:24.852,-0.13678105,-0.25371492,-10.084106,-20.36671,1.0649097,2.4065895
11:21:24.862,-0.10529484,-0.46827915,-9.534525,-20.549545,0.56361675,2.4692338
11:21:24.872,-0.17971924,-0.28666365,-9.794436,-20.575653,1.1991191,2.4978023
11:21:24.882,-0.07365383,-0.37104064,-9.638028,-20.833948,1.0320145,2.608936
11:21:24.892,-0.19807364,-0.3350897,-9.910275,-20.89434,1.2620642,2.6036901
11:21:24.902,-0.05709353,-0.091991454,-9.525737,-21.082048,1.3862071,2.624638
11:21:24.912,-0.14235403,-0.34970897,-9.855088,-21.112175,1.4960699,2.6858673
11:21:24.922,-0.037288237,-0.06892872,-9.690625,-21.076288,1.7111431,2.7658463
11:21:24.932,-0.14259857,-0.014222262,-9.925821,-21.254538,1.615287,2.9103906
11:21:24.942,-0.03758563,-0.041908197,-9.480171,-21.167313,1.558715,2.8978999
11:21:24.952,-0.082231104,0.118784316,-9.93171,-21.093348,2.044556,2.96995
11:21:24.962,-0.093970664,-0.078647025,-9.652051,-20.95604,1.8023416,3.0060325
11:21:24.972,-0.03281473,0.19675924,-9.776898,-20.686516,1.9485,3.0045521
11:21:24.982,-0.043096498,0.079784535,-9.736899,-20.322544,2.15092,3.0720708
11:21:24.992,-0.13060814,0.23218253,-9.685131,-20.03297,1.9107232,3.0477648
11:21:25.002,-0.08313319,0.06293677,-9.712899,-19.671595,2.199106,3.0153534
11:21:25.012,-0.17203069,0.32564223,-9.824768,-19.35575,2.0176737,2.9992974
11:21:25.022,-0.10286832,0.3243743,-9.75687,-18.90627,2.0895183,3.0199134
11:21:25.032,-0.08825792,0.36700255,-9.787067,-18.488653,2.0084949,3.0511978
11:21:25.042,-0.08360496,0.35030404,-9.715028,-18.037012,1.8742186,3.0081136
11:21:25.052,-0.11339997,0.38275388,-9.783073,-17.725836,1.8077205,2.9128726
11:21:25.062,-0.087380685,0.46768853,-9.70221,-17.245247,1.7299391,2.9271438
11:21:25.072,-0.112415165,0.56985414,-9.752175,-16.76686,1.5756869,2.88317
11:21:25.082,-0.09369518,0.5565267,-9.745607,-16.32059,1.4820201,2.8237472
11:21:25.092,-0.0987597,0.5567388,-9.769285,-15.790186,1.3509676,2.781501
11:21:25.102,-0.028142955,0.60312927,-9.681627,-15.314267,1.3025072,2.7304213
11:21:25.112,-0.059718486,0.65108293,-9.582085,-14.915215,0.960854,2.6551588
11:21:25.122,-0.08696548,0.65182114,-9.736187,-14.411138,0.92749196,2.6673315
11:21:25.132,-0.07726429,0.7491847,-9.851494,-13.992764,0.70328444,2.5861793
11:21:25.142,-0.08248763,0.6142022,-9.6515465,-13.521296,0.635714,2.4465528
11:21:25.152,-0.05298708,0.6379071,-9.637518,-13.043521,0.46555158,2.395836
11:21:25.162,-0.09114727,0.75206983,-9.847502,-12.660616,0.24467245,2.2786548
11:21:25.172,-0.097704105,0.7148334,-9.629742,-12.354626,0.060391642,2.198833
11:21:25.182,-0.08505863,0.85042334,-9.578683,-11.966332,-0.0015118293,2.1264887
11:21:25.192,-0.10461785,0.7338512,-9.651255,-11.639389,-0.15755641,2.0346837
11:21:25.202,-0.07686232,0.8357701,-9.736774,-11.324145,-0.299816,1.9791236
11:21:25.212,-0.06841317,0.76537716,-9.591714,-11.074461,-0.4424146,1.9086211
11:21:25.222,-0.07456068,0.77401096,-9.676622,-10.830026,-0.6648776,1.8524414
11:21:25.232,-0.1313874,0.93112904,-9.947057,-10.79986,-0.69201565,1.7633365
11:21:25.242,-0.06336101,0.8255723,-9.419413,-10.533873,-0.9829765,1.7201594
11:21:25.252,-0.1663377,0.92740554,-9.918942,-10.39502,-0.83806396,1.649304
11:21:25.262,0.009087825,0.7287712,-9.550306,-10.128392,-1.3986048,1.6483996
11:21:25.272,-0.16071184,0.83676624,-9.843221,-9.873213,-1.1174791,1.5987593
11:21:25.282,-0.14588231,0.9328858,-9.594971,-9.732957,-1.6376607,1.6168568
11:21:25.292,-0.07254897,0.7885827,-9.6391,-9.48314,-1.223537,1.5504886
11:21:25.302,-0.0760702,0.94327515,-9.615682,-9.157979,-1.577195,1.5781174
11:21:25.312,-0.039366446,0.86111563,-9.578104,-8.825247,-1.4947565,1.5779988
11:21:25.322,-0.092903666,0.92872113,-9.722528,-8.480587,-1.6908243,1.5763527
11:21:25.332,-0.03177996,1.0102576,-9.535178,-8.189926,-1.5822918,1.5532167
11:21:25.342,-0.18795542,0.92032814,-9.8361845,-7.764064,-1.6268051,1.58645
11:21:25.352,-0.06679058,0.8933581,-9.767839,-7.304411,-1.554973,1.5755181
11:21:25.362,-0.088321045,1.0843546,-9.627983,-6.8729515,-1.5560935,1.6327487
11:21:25.372,-0.13574055,0.8430314,-9.7566395,-6.4290495,-1.5420976,1.6716299
11:21:25.382,-0.1365414,1.0160673,-9.926181,-6.002677,-1.3267723,1.7018834
11:21:25.392,-0.05694692,0.99861705,-9.533675,-5.6665196,-1.5093166,1.7492187
11:21:25.402,-0.21628585,0.760169,-10.076081,-5.2256618,-1.1890585,1.7983707
11:21:25.412,0.008134571,1.0818284,-9.507285,-4.9355297,-1.6895428,1.8269721
11:21:25.422,-0.13214506,0.884998,-9.6981,-4.6293592,-0.9447439,1.8388821
11:21:25.432,-0.06198973,0.86213213,-9.882577,-4.192769,-1.3290421,1.9154035
11:21:25.442,-0.04630094,1.1616913,-9.620339,-3.908705,-1.0932015,1.9175117
11:21:25.452,-0.0674415,0.9463341,-9.704688,-3.4306815,-1.0946867,1.8941281
11:21:25.462,-0.13497438,1.2794085,-9.708301,-3.004952,-0.9907508,1.9674978
11:21:25.472,-0.016062776,1.0144979,-9.775364,-2.6275313,-0.75056434,1.9343977
11:21:25.482,-0.10238387,1.1405866,-9.769102,-2.16599,-0.73112273,1.9209466
11:21:25.492,-0.094277196,1.0047582,-9.6633625,-1.7665347,-0.7818206,1.9338281
11:21:25.502,-0.08553322,1.1522255,-9.864281,-1.2637875,-0.40993044,1.8627387
11:21:25.512,-0.053486798,1.1258905,-9.650197,-0.9194104,-0.37405294,1.857691
11:21:25.522,-0.083345845,1.0963476,-9.707547,-0.5861357,-0.2528097,1.889393
11:21:25.532,-0.07885863,1.013796,-9.734295,-0.26855698,-0.063634194,1.7883502
11:21:25.542,-0.07715887,1.062421,-9.75837,0.05650044,0.15815918,1.7562923
11:21:25.552,-0.07096283,1.0727142,-9.738602,0.25932068,0.1239818,1.6745057
11:21:25.562,-0.0765463,1.0457098,-9.665864,0.5877648,0.27206296,1.6436299
11:21:25.572,-0.10476415,1.0084065,-9.736901,0.79422635,0.44009548,1.5645614
11:21:25.582,-0.10101673,0.93025166,-9.768901,0.9838566,0.61423004,1.4654384
11:21:25.592,-0.10563235,0.9770388,-9.700071,1.1926816,0.768528,1.4099853
